path,name,noise,location,correspondingAudio,audiotrials.thisRepN,audiotrials.thisTrialN,audiotrials.thisN,audiotrials.thisIndex,visualTrials.thisRepN,visualTrials.thisTrialN,visualTrials.thisN,visualTrials.thisIndex,combinedTrials.thisRepN,combinedTrials.thisTrialN,combinedTrials.thisN,combinedTrials.thisIndex,WelcomeKey.keys,WelcomeKey.rt,key_resp_2.keys,key_resp_2.rt,AudioInstrAccept.keys,AudioInstrAccept.rt,LeftorRight.keys,LeftorRight.rt,VisualBlock.keys,VisualBlock.rt,VisualDecision.keys,VisualDecision.rt,CombinedAccept.keys,CombinedAccept.rt,CombComparisonResponse.keys,CombComparisonResponse.rt,participant,age,frameRate,sex,expName,date,
,,,,,,,,,,,,,,,,,space,9.84203004837,,,,,,,,,,,,,,,participant12,23,59.8740651601,M,trial,2017_May_28_1618,
,,,,,,,,,,,,,,,,,,,space,11.9108870029,,,,,,,,,,,,,participant12,23,59.8740651601,M,trial,2017_May_28_1618,
,,,,,,,,,,,,,,,,,,,,,space,12.1613090038,,,,,,,,,,,participant12,23,59.8740651601,M,trial,2017_May_28_1618,
/sounds/legit/right35.wav,right30,,,,0,0,0,3,,,,,,,,,,,,,,,right,0.569187164307,,,,,,,,,participant12,23,59.8740651601,M,trial,2017_May_28_1618,
/sounds/legit/left35.wav,left30,,,,0,1,1,2,,,,,,,,,,,,,,,left,1.12029099464,,,,,,,,,participant12,23,59.8740651601,M,trial,2017_May_28_1618,
/sounds/legit/right70.wav,right60,,,,0,2,2,4,,,,,,,,,,,,,,,right,0.385346889496,,,,,,,,,participant12,23,59.8740651601,M,trial,2017_May_28_1618,
/sounds/legit/left100.wav,left100,,,,0,3,3,0,,,,,,,,,,,,,,,left,0.402205944061,,,,,,,,,participant12,23,59.8740651601,M,trial,2017_May_28_1618,
/sounds/legit/right100.wav,right100,,,,0,4,4,5,,,,,,,,,,,,,,,right,0.218354940414,,,,,,,,,participant12,23,59.8740651601,M,trial,2017_May_28_1618,
/sounds/legit/left70.wav,left60,,,,0,5,5,1,,,,,,,,,,,,,,,left,0.401962995529,,,,,,,,,participant12,23,59.8740651601,M,trial,2017_May_28_1618,
/sounds/legit/equal.wav,equal,,,,0,6,6,6,,,,,,,,,,,,,,,left,0.302070856094,,,,,,,,,participant12,23,59.8740651601,M,trial,2017_May_28_1618,
/sounds/legit/equal.wav,equal,,,,1,0,7,6,,,,,,,,,,,,,,,left,0.335541009903,,,,,,,,,participant12,23,59.8740651601,M,trial,2017_May_28_1618,
/sounds/legit/right35.wav,right30,,,,1,1,8,3,,,,,,,,,,,,,,,right,0.368758916855,,,,,,,,,participant12,23,59.8740651601,M,trial,2017_May_28_1618,
/sounds/legit/left100.wav,left100,,,,1,2,9,0,,,,,,,,,,,,,,,left,0.235222101212,,,,,,,,,participant12,23,59.8740651601,M,trial,2017_May_28_1618,
/sounds/legit/right100.wav,right100,,,,1,3,10,5,,,,,,,,,,,,,,,right,0.15164899826,,,,,,,,,participant12,23,59.8740651601,M,trial,2017_May_28_1618,
/sounds/legit/left35.wav,left30,,,,1,4,11,2,,,,,,,,,,,,,,,left,0.485594034195,,,,,,,,,participant12,23,59.8740651601,M,trial,2017_May_28_1618,
/sounds/legit/right70.wav,right60,,,,1,5,12,4,,,,,,,,,,,,,,,right,0.184977054596,,,,,,,,,participant12,23,59.8740651601,M,trial,2017_May_28_1618,
/sounds/legit/left70.wav,left60,,,,1,6,13,1,,,,,,,,,,,,,,,left,0.101578950882,,,,,,,,,participant12,23,59.8740651601,M,trial,2017_May_28_1618,
/sounds/legit/right35.wav,right30,,,,2,0,14,3,,,,,,,,,,,,,,,right,0.201251983643,,,,,,,,,participant12,23,59.8740651601,M,trial,2017_May_28_1618,
/sounds/legit/equal.wav,equal,,,,2,1,15,6,,,,,,,,,,,,,,,left,0.168214082718,,,,,,,,,participant12,23,59.8740651601,M,trial,2017_May_28_1618,
/sounds/legit/left70.wav,left60,,,,2,2,16,1,,,,,,,,,,,,,,,left,0.134791851044,,,,,,,,,participant12,23,59.8740651601,M,trial,2017_May_28_1618,
/sounds/legit/right70.wav,right60,,,,2,3,17,4,,,,,,,,,,,,,,,right,0.0515902042389,,,,,,,,,participant12,23,59.8740651601,M,trial,2017_May_28_1618,
/sounds/legit/left35.wav,left30,,,,2,4,18,2,,,,,,,,,,,,,,,right,0.636035919189,,,,,,,,,participant12,23,59.8740651601,M,trial,2017_May_28_1618,
/sounds/legit/right100.wav,right100,,,,2,5,19,5,,,,,,,,,,,,,,,right,0.185091972351,,,,,,,,,participant12,23,59.8740651601,M,trial,2017_May_28_1618,
/sounds/legit/left100.wav,left100,,,,2,6,20,0,,,,,,,,,,,,,,,left,0.168360948563,,,,,,,,,participant12,23,59.8740651601,M,trial,2017_May_28_1618,
/sounds/legit/right100.wav,right100,,,,3,0,21,5,,,,,,,,,,,,,,,right,0.00138807296753,,,,,,,,,participant12,23,59.8740651601,M,trial,2017_May_28_1618,
/sounds/legit/left100.wav,left100,,,,3,1,22,0,,,,,,,,,,,,,,,left,0.118012189865,,,,,,,,,participant12,23,59.8740651601,M,trial,2017_May_28_1618,
/sounds/legit/right70.wav,right60,,,,3,2,23,4,,,,,,,,,,,,,,,right,0.201658010483,,,,,,,,,participant12,23,59.8740651601,M,trial,2017_May_28_1618,
/sounds/legit/equal.wav,equal,,,,3,3,24,6,,,,,,,,,,,,,,,left,0.201817989349,,,,,,,,,participant12,23,59.8740651601,M,trial,2017_May_28_1618,
/sounds/legit/right35.wav,right30,,,,3,4,25,3,,,,,,,,,,,,,,,right,0.452302932739,,,,,,,,,participant12,23,59.8740651601,M,trial,2017_May_28_1618,
/sounds/legit/left70.wav,left60,,,,3,5,26,1,,,,,,,,,,,,,,,left,0.0847311019897,,,,,,,,,participant12,23,59.8740651601,M,trial,2017_May_28_1618,
/sounds/legit/left35.wav,left30,,,,3,6,27,2,,,,,,,,,,,,,,,left,0.051472902298,,,,,,,,,participant12,23,59.8740651601,M,trial,2017_May_28_1618,
/sounds/legit/left70.wav,left60,,,,4,0,28,1,,,,,,,,,,,,,,,left,0.0847210884094,,,,,,,,,participant12,23,59.8740651601,M,trial,2017_May_28_1618,
/sounds/legit/right35.wav,right30,,,,4,1,29,3,,,,,,,,,,,,,,,right,0.218496084213,,,,,,,,,participant12,23,59.8740651601,M,trial,2017_May_28_1618,
/sounds/legit/left35.wav,left30,,,,4,2,30,2,,,,,,,,,,,,,,,left,0.184849977493,,,,,,,,,participant12,23,59.8740651601,M,trial,2017_May_28_1618,
/sounds/legit/equal.wav,equal,,,,4,3,31,6,,,,,,,,,,,,,,,left,0.368823051453,,,,,,,,,participant12,23,59.8740651601,M,trial,2017_May_28_1618,
/sounds/legit/left100.wav,left100,,,,4,4,32,0,,,,,,,,,,,,,,,left,0.201859951019,,,,,,,,,participant12,23,59.8740651601,M,trial,2017_May_28_1618,
/sounds/legit/right100.wav,right100,,,,4,5,33,5,,,,,,,,,,,,,,,right,0.118319034576,,,,,,,,,participant12,23,59.8740651601,M,trial,2017_May_28_1618,
/sounds/legit/right70.wav,right60,,,,4,6,34,4,,,,,,,,,,,,,,,right,0.168335914612,,,,,,,,,participant12,23,59.8740651601,M,trial,2017_May_28_1618,
/sounds/legit/left100.wav,left100,,,,5,0,35,0,,,,,,,,,,,,,,,left,0.21834897995,,,,,,,,,participant12,23,59.8740651601,M,trial,2017_May_28_1618,
/sounds/legit/equal.wav,equal,,,,5,1,36,6,,,,,,,,,,,,,,,left,0.201565027237,,,,,,,,,participant12,23,59.8740651601,M,trial,2017_May_28_1618,
/sounds/legit/right100.wav,right100,,,,5,2,37,5,,,,,,,,,,,,,,,right,1.37099218369,,,,,,,,,participant12,23,59.8740651601,M,trial,2017_May_28_1618,
/sounds/legit/right70.wav,right60,,,,5,3,38,4,,,,,,,,,,,,,,,right,0.23521399498,,,,,,,,,participant12,23,59.8740651601,M,trial,2017_May_28_1618,
/sounds/legit/left35.wav,left30,,,,5,4,39,2,,,,,,,,,,,,,,,left,0.367985963821,,,,,,,,,participant12,23,59.8740651601,M,trial,2017_May_28_1618,
/sounds/legit/left70.wav,left60,,,,5,5,40,1,,,,,,,,,,,,,,,left,0.18491601944,,,,,,,,,participant12,23,59.8740651601,M,trial,2017_May_28_1618,
/sounds/legit/right35.wav,right30,,,,5,6,41,3,,,,,,,,,,,,,,,left,0.084969997406,,,,,,,,,participant12,23,59.8740651601,M,trial,2017_May_28_1618,
/sounds/legit/left100.wav,left100,,,,6,0,42,0,,,,,,,,,,,,,,,left,1.03688311577,,,,,,,,,participant12,23,59.8740651601,M,trial,2017_May_28_1618,
/sounds/legit/left35.wav,left30,,,,6,1,43,2,,,,,,,,,,,,,,,left,0.886687040329,,,,,,,,,participant12,23,59.8740651601,M,trial,2017_May_28_1618,
/sounds/legit/right100.wav,right100,,,,6,2,44,5,,,,,,,,,,,,,,,right,0.585963964462,,,,,,,,,participant12,23,59.8740651601,M,trial,2017_May_28_1618,
/sounds/legit/right70.wav,right60,,,,6,3,45,4,,,,,,,,,,,,,,,right,0.535872220993,,,,,,,,,participant12,23,59.8740651601,M,trial,2017_May_28_1618,
/sounds/legit/left70.wav,left60,,,,6,4,46,1,,,,,,,,,,,,,,,left,0.268625020981,,,,,,,,,participant12,23,59.8740651601,M,trial,2017_May_28_1618,
/sounds/legit/right35.wav,right30,,,,6,5,47,3,,,,,,,,,,,,,,,left,0.184991836548,,,,,,,,,participant12,23,59.8740651601,M,trial,2017_May_28_1618,
/sounds/legit/equal.wav,equal,,,,6,6,48,6,,,,,,,,,,,,,,,left,0.134971141815,,,,,,,,,participant12,23,59.8740651601,M,trial,2017_May_28_1618,
/sounds/legit/left35.wav,left30,,,,7,0,49,2,,,,,,,,,,,,,,,left,0.00123906135559,,,,,,,,,participant12,23,59.8740651601,M,trial,2017_May_28_1618,
/sounds/legit/right35.wav,right30,,,,7,1,50,3,,,,,,,,,,,,,,,left,0.0680830478668,,,,,,,,,participant12,23,59.8740651601,M,trial,2017_May_28_1618,
/sounds/legit/right100.wav,right100,,,,7,2,51,5,,,,,,,,,,,,,,,right,0.20082616806,,,,,,,,,participant12,23,59.8740651601,M,trial,2017_May_28_1618,
/sounds/legit/right70.wav,right60,,,,7,3,52,4,,,,,,,,,,,,,,,right,0.318888902664,,,,,,,,,participant12,23,59.8740651601,M,trial,2017_May_28_1618,
/sounds/legit/left70.wav,left60,,,,7,4,53,1,,,,,,,,,,,,,,,left,0.25204205513,,,,,,,,,participant12,23,59.8740651601,M,trial,2017_May_28_1618,
/sounds/legit/equal.wav,equal,,,,7,5,54,6,,,,,,,,,,,,,,,left,0.168159008026,,,,,,,,,participant12,23,59.8740651601,M,trial,2017_May_28_1618,
/sounds/legit/left100.wav,left100,,,,7,6,55,0,,,,,,,,,,,,,,,left,0.970360994339,,,,,,,,,participant12,23,59.8740651601,M,trial,2017_May_28_1618,
/sounds/legit/left35.wav,left30,,,,8,0,56,2,,,,,,,,,,,,,,,left,0.151664018631,,,,,,,,,participant12,23,59.8740651601,M,trial,2017_May_28_1618,
/sounds/legit/left70.wav,left60,,,,8,1,57,1,,,,,,,,,,,,,,,left,0.00126695632935,,,,,,,,,participant12,23,59.8740651601,M,trial,2017_May_28_1618,
/sounds/legit/left100.wav,left100,,,,8,2,58,0,,,,,,,,,,,,,,,left,0.0683360099792,,,,,,,,,participant12,23,59.8740651601,M,trial,2017_May_28_1618,
/sounds/legit/right70.wav,right60,,,,8,3,59,4,,,,,,,,,,,,,,,right,0.118376970291,,,,,,,,,participant12,23,59.8740651601,M,trial,2017_May_28_1618,
/sounds/legit/equal.wav,equal,,,,8,4,60,6,,,,,,,,,,,,,,,left,0.252143859863,,,,,,,,,participant12,23,59.8740651601,M,trial,2017_May_28_1618,
/sounds/legit/right35.wav,right30,,,,8,5,61,3,,,,,,,,,,,,,,,left,0.034649848938,,,,,,,,,participant12,23,59.8740651601,M,trial,2017_May_28_1618,
/sounds/legit/right100.wav,right100,,,,8,6,62,5,,,,,,,,,,,,,,,right,0.736361980438,,,,,,,,,participant12,23,59.8740651601,M,trial,2017_May_28_1618,
/sounds/legit/left35.wav,left30,,,,9,0,63,2,,,,,,,,,,,,,,,left,0.135058164597,,,,,,,,,participant12,23,59.8740651601,M,trial,2017_May_28_1618,
/sounds/legit/right70.wav,right60,,,,9,1,64,4,,,,,,,,,,,,,,,right,0.201639890671,,,,,,,,,participant12,23,59.8740651601,M,trial,2017_May_28_1618,
/sounds/legit/right100.wav,right100,,,,9,2,65,5,,,,,,,,,,,,,,,right,0.151494979858,,,,,,,,,participant12,23,59.8740651601,M,trial,2017_May_28_1618,
/sounds/legit/left100.wav,left100,,,,9,3,66,0,,,,,,,,,,,,,,,left,0.185086965561,,,,,,,,,participant12,23,59.8740651601,M,trial,2017_May_28_1618,
/sounds/legit/left70.wav,left60,,,,9,4,67,1,,,,,,,,,,,,,,,left,0.0512909889221,,,,,,,,,participant12,23,59.8740651601,M,trial,2017_May_28_1618,
/sounds/legit/right35.wav,right30,,,,9,5,68,3,,,,,,,,,,,,,,,right,0.151676177979,,,,,,,,,participant12,23,59.8740651601,M,trial,2017_May_28_1618,
/sounds/legit/equal.wav,equal,,,,9,6,69,6,,,,,,,,,,,,,,,left,0.0347030162811,,,,,,,,,participant12,23,59.8740651601,M,trial,2017_May_28_1618,
,,,,,,,,,,,,,,,,,,,,,,,,,space,16.0526549816,,,,,,,participant12,23,59.8740651601,M,trial,2017_May_28_1618,
,,0.62,"[4.5, 0]",/sounds/legit/right70.wav,,,,,0,0,0,14,,,,,,,,,,,,,,,right,0.83652305603,,,,,participant12,23,59.8740651601,M,trial,2017_May_28_1618,
,,0.23,"[-2.25, 0]",/sounds/legit/left35.wav,,,,,0,1,1,21,,,,,,,,,,,,,,,left,0.268591165543,,,,,participant12,23,59.8740651601,M,trial,2017_May_28_1618,
,,0.23,"[6.75, 0]",/sounds/legit/right100.wav,,,,,0,2,2,16,,,,,,,,,,,,,,,right,0.101974964142,,,,,participant12,23,59.8740651601,M,trial,2017_May_28_1618,
,,0.49,"[-6.75, 0]",/sounds/legit/left100.wav,,,,,0,3,3,33,,,,,,,,,,,,,,,left,0.1348528862,,,,,participant12,23,59.8740651601,M,trial,2017_May_28_1618,
,,0.23,"[-4.5, 0]",/sounds/legit/left70.wav,,,,,0,4,4,26,,,,,,,,,,,,,,,left,3.32506299019,,,,,participant12,23,59.8740651601,M,trial,2017_May_28_1618,
,,0.62,"[2.25, 0]",/sounds/legit/right35.wav,,,,,0,5,5,9,,,,,,,,,,,,,,,right,0.602630138397,,,,,participant12,23,59.8740651601,M,trial,2017_May_28_1618,
,,0.49,"[-2.25, 0]",/sounds/legit/left35.wav,,,,,0,6,6,23,,,,,,,,,,,,,,,left,0.485669136047,,,,,participant12,23,59.8740651601,M,trial,2017_May_28_1618,
,,0.1,"[0, 0]",/sounds/legit/equal.wav,,,,,0,7,7,0,,,,,,,,,,,,,,,left,0.184956073761,,,,,participant12,23,59.8740651601,M,trial,2017_May_28_1618,
,,0.49,"[4.5, 0]",/sounds/legit/right70.wav,,,,,0,8,8,13,,,,,,,,,,,,,,,right,0.936694860458,,,,,participant12,23,59.8740651601,M,trial,2017_May_28_1618,
,,0.1,"[4.5, 0]",/sounds/legit/right70.wav,,,,,0,9,9,10,,,,,,,,,,,,,,,right,0.485644102097,,,,,participant12,23,59.8740651601,M,trial,2017_May_28_1618,
,,0.62,"[-4.5, 0]",/sounds/legit/left70.wav,,,,,0,10,10,29,,,,,,,,,,,,,,,left,1.15392780304,,,,,participant12,23,59.8740651601,M,trial,2017_May_28_1618,
,,0.1,"[-2.25, 0]",/sounds/legit/left35.wav,,,,,0,11,11,20,,,,,,,,,,,,,,,left,0.452224969864,,,,,participant12,23,59.8740651601,M,trial,2017_May_28_1618,
,,0.36,"[0, 0]",/sounds/legit/equal.wav,,,,,0,12,12,2,,,,,,,,,,,,,,,left,0.752939939499,,,,,participant12,23,59.8740651601,M,trial,2017_May_28_1618,
,,0.49,"[0, 0]",/sounds/legit/equal.wav,,,,,0,13,13,3,,,,,,,,,,,,,,,left,0.28498506546,,,,,participant12,23,59.8740651601,M,trial,2017_May_28_1618,
,,0.1,"[-6.75, 0]",/sounds/legit/left100.wav,,,,,0,14,14,30,,,,,,,,,,,,,,,left,0.319077968597,,,,,participant12,23,59.8740651601,M,trial,2017_May_28_1618,
,,0.23,"[4.5, 0]",/sounds/legit/right70.wav,,,,,0,15,15,11,,,,,,,,,,,,,,,right,1.15384197235,,,,,participant12,23,59.8740651601,M,trial,2017_May_28_1618,
,,0.36,"[4.5, 0]",/sounds/legit/right70.wav,,,,,0,16,16,12,,,,,,,,,,,,,,,right,0.318428993225,,,,,participant12,23,59.8740651601,M,trial,2017_May_28_1618,
,,0.49,"[2.25, 0]",/sounds/legit/right35.wav,,,,,0,17,17,8,,,,,,,,,,,,,,,right,0.318539142609,,,,,participant12,23,59.8740651601,M,trial,2017_May_28_1618,
,,0.36,"[-4.5, 0]",/sounds/legit/left70.wav,,,,,0,18,18,27,,,,,,,,,,,,,,,left,0.285028219223,,,,,participant12,23,59.8740651601,M,trial,2017_May_28_1618,
,,0.23,"[2.25, 0]",/sounds/legit/right35.wav,,,,,0,19,19,6,,,,,,,,,,,,,,,right,0.302123069763,,,,,participant12,23,59.8740651601,M,trial,2017_May_28_1618,
,,0.1,"[6.75, 0]",/sounds/legit/right100.wav,,,,,0,20,20,15,,,,,,,,,,,,,,,right,0.285330057144,,,,,participant12,23,59.8740651601,M,trial,2017_May_28_1618,
,,0.23,"[0, 0]",/sounds/legit/equal.wav,,,,,0,21,21,1,,,,,,,,,,,,,,,left,0.36868596077,,,,,participant12,23,59.8740651601,M,trial,2017_May_28_1618,
,,0.36,"[-2.25, 0]",/sounds/legit/left35.wav,,,,,0,22,22,22,,,,,,,,,,,,,,,left,0.251546859741,,,,,participant12,23,59.8740651601,M,trial,2017_May_28_1618,
,,0.49,"[6.75, 0]",/sounds/legit/right100.wav,,,,,0,23,23,18,,,,,,,,,,,,,,,right,0.252003908157,,,,,participant12,23,59.8740651601,M,trial,2017_May_28_1618,
,,0.1,"[2.25, 0]",/sounds/legit/right35.wav,,,,,0,24,24,5,,,,,,,,,,,,,,,right,0.252036094666,,,,,participant12,23,59.8740651601,M,trial,2017_May_28_1618,
,,0.36,"[-6.75, 0]",/sounds/legit/left100.wav,,,,,0,25,25,32,,,,,,,,,,,,,,,left,0.268649101257,,,,,participant12,23,59.8740651601,M,trial,2017_May_28_1618,
,,0.49,"[-4.5, 0]",/sounds/legit/left70.wav,,,,,0,26,26,28,,,,,,,,,,,,,,,left,0.518861055374,,,,,participant12,23,59.8740651601,M,trial,2017_May_28_1618,
,,0.62,"[0, 0]",/sounds/legit/equal.wav,,,,,0,27,27,4,,,,,,,,,,,,,,,left,0.401744127274,,,,,participant12,23,59.8740651601,M,trial,2017_May_28_1618,
,,0.62,"[6.75, 0]",/sounds/legit/right100.wav,,,,,0,28,28,19,,,,,,,,,,,,,,,right,0.302146911621,,,,,participant12,23,59.8740651601,M,trial,2017_May_28_1618,
,,0.62,"[-6.75, 0]",/sounds/legit/left100.wav,,,,,0,29,29,34,,,,,,,,,,,,,,,left,1.27048993111,,,,,participant12,23,59.8740651601,M,trial,2017_May_28_1618,
,,0.36,"[2.25, 0]",/sounds/legit/right35.wav,,,,,0,30,30,7,,,,,,,,,,,,,,,right,0.235464096069,,,,,participant12,23,59.8740651601,M,trial,2017_May_28_1618,
,,0.36,"[6.75, 0]",/sounds/legit/right100.wav,,,,,0,31,31,17,,,,,,,,,,,,,,,right,0.00125408172607,,,,,participant12,23,59.8740651601,M,trial,2017_May_28_1618,
,,0.23,"[-6.75, 0]",/sounds/legit/left100.wav,,,,,0,32,32,31,,,,,,,,,,,,,,,left,0.569077968597,,,,,participant12,23,59.8740651601,M,trial,2017_May_28_1618,
,,0.1,"[-4.5, 0]",/sounds/legit/left70.wav,,,,,0,33,33,25,,,,,,,,,,,,,,,left,0.301886081696,,,,,participant12,23,59.8740651601,M,trial,2017_May_28_1618,
,,0.62,"[-2.25, 0]",/sounds/legit/left35.wav,,,,,0,34,34,24,,,,,,,,,,,,,,,left,0.402959108353,,,,,participant12,23,59.8740651601,M,trial,2017_May_28_1618,
,,0.36,"[-6.75, 0]",/sounds/legit/left100.wav,,,,,1,0,35,32,,,,,,,,,,,,,,,left,0.31866312027,,,,,participant12,23,59.8740651601,M,trial,2017_May_28_1618,
,,0.36,"[-4.5, 0]",/sounds/legit/left70.wav,,,,,1,1,36,27,,,,,,,,,,,,,,,left,0.318547010422,,,,,participant12,23,59.8740651601,M,trial,2017_May_28_1618,
,,0.62,"[-6.75, 0]",/sounds/legit/left100.wav,,,,,1,2,37,34,,,,,,,,,,,,,,,left,0.402171850204,,,,,participant12,23,59.8740651601,M,trial,2017_May_28_1618,
,,0.36,"[2.25, 0]",/sounds/legit/right35.wav,,,,,1,3,38,7,,,,,,,,,,,,,,,right,0.268604040146,,,,,participant12,23,59.8740651601,M,trial,2017_May_28_1618,
,,0.1,"[6.75, 0]",/sounds/legit/right100.wav,,,,,1,4,39,15,,,,,,,,,,,,,,,right,0.435045957565,,,,,participant12,23,59.8740651601,M,trial,2017_May_28_1618,
,,0.62,"[4.5, 0]",/sounds/legit/right70.wav,,,,,1,5,40,14,,,,,,,,,,,,,,,right,0.285351037979,,,,,participant12,23,59.8740651601,M,trial,2017_May_28_1618,
,,0.62,"[0, 0]",/sounds/legit/equal.wav,,,,,1,6,41,4,,,,,,,,,,,,,,,left,0.301891088486,,,,,participant12,23,59.8740651601,M,trial,2017_May_28_1618,
,,0.49,"[-6.75, 0]",/sounds/legit/left100.wav,,,,,1,7,42,33,,,,,,,,,,,,,,,left,0.252016067505,,,,,participant12,23,59.8740651601,M,trial,2017_May_28_1618,
,,0.36,"[4.5, 0]",/sounds/legit/right70.wav,,,,,1,8,43,12,,,,,,,,,,,,,,,right,0.669472932816,,,,,participant12,23,59.8740651601,M,trial,2017_May_28_1618,
,,0.23,"[-6.75, 0]",/sounds/legit/left100.wav,,,,,1,9,44,31,,,,,,,,,,,,,,,left,0.385537862778,,,,,participant12,23,59.8740651601,M,trial,2017_May_28_1618,
,,0.36,"[-2.25, 0]",/sounds/legit/left35.wav,,,,,1,10,45,22,,,,,,,,,,,,,,,left,0.301693916321,,,,,participant12,23,59.8740651601,M,trial,2017_May_28_1618,
,,0.36,"[6.75, 0]",/sounds/legit/right100.wav,,,,,1,11,46,17,,,,,,,,,,,,,,,right,0.335448026657,,,,,participant12,23,59.8740651601,M,trial,2017_May_28_1618,
,,0.23,"[4.5, 0]",/sounds/legit/right70.wav,,,,,1,12,47,11,,,,,,,,,,,,,,,right,0.318865060806,,,,,participant12,23,59.8740651601,M,trial,2017_May_28_1618,
,,0.36,"[0, 0]",/sounds/legit/equal.wav,,,,,1,13,48,2,,,,,,,,,,,,,,,left,0.21844291687,,,,,participant12,23,59.8740651601,M,trial,2017_May_28_1618,
,,0.49,"[6.75, 0]",/sounds/legit/right100.wav,,,,,1,14,49,18,,,,,,,,,,,,,,,right,0.235212087631,,,,,participant12,23,59.8740651601,M,trial,2017_May_28_1618,
,,0.62,"[2.25, 0]",/sounds/legit/right35.wav,,,,,1,15,50,9,,,,,,,,,,,,,,,right,0.218517065048,,,,,participant12,23,59.8740651601,M,trial,2017_May_28_1618,
,,0.62,"[-2.25, 0]",/sounds/legit/left35.wav,,,,,1,16,51,24,,,,,,,,,,,,,,,left,0.33550286293,,,,,participant12,23,59.8740651601,M,trial,2017_May_28_1618,
,,0.23,"[6.75, 0]",/sounds/legit/right100.wav,,,,,1,17,52,16,,,,,,,,,,,,,,,right,0.0180189609528,,,,,participant12,23,59.8740651601,M,trial,2017_May_28_1618,
,,0.49,"[-2.25, 0]",/sounds/legit/left35.wav,,,,,1,18,53,23,,,,,,,,,,,,,,,left,0.318889141083,,,,,participant12,23,59.8740651601,M,trial,2017_May_28_1618,
,,0.1,"[0, 0]",/sounds/legit/equal.wav,,,,,1,19,54,0,,,,,,,,,,,,,,,left,0.28525185585,,,,,participant12,23,59.8740651601,M,trial,2017_May_28_1618,
,,0.49,"[-4.5, 0]",/sounds/legit/left70.wav,,,,,1,20,55,28,,,,,,,,,,,,,,,left,1.92215895653,,,,,participant12,23,59.8740651601,M,trial,2017_May_28_1618,
,,0.49,"[4.5, 0]",/sounds/legit/right70.wav,,,,,1,21,56,13,,,,,,,,,,,,,,,right,0.302065134048,,,,,participant12,23,59.8740651601,M,trial,2017_May_28_1618,
,,0.62,"[6.75, 0]",/sounds/legit/right100.wav,,,,,1,22,57,19,,,,,,,,,,,,,,,right,0.352043151855,,,,,participant12,23,59.8740651601,M,trial,2017_May_28_1618,
,,0.23,"[2.25, 0]",/sounds/legit/right35.wav,,,,,1,23,58,6,,,,,,,,,,,,,,,right,0.301918029785,,,,,participant12,23,59.8740651601,M,trial,2017_May_28_1618,
,,0.1,"[-6.75, 0]",/sounds/legit/left100.wav,,,,,1,24,59,30,,,,,,,,,,,,,,,left,0.385298013687,,,,,participant12,23,59.8740651601,M,trial,2017_May_28_1618,
,,0.1,"[-4.5, 0]",/sounds/legit/left70.wav,,,,,1,25,60,25,,,,,,,,,,,,,,,left,0.168669939041,,,,,participant12,23,59.8740651601,M,trial,2017_May_28_1618,
,,0.1,"[4.5, 0]",/sounds/legit/right70.wav,,,,,1,26,61,10,,,,,,,,,,,,,,,right,0.235064983368,,,,,participant12,23,59.8740651601,M,trial,2017_May_28_1618,
,,0.49,"[2.25, 0]",/sounds/legit/right35.wav,,,,,1,27,62,8,,,,,,,,,,,,,,,right,0.302050113678,,,,,participant12,23,59.8740651601,M,trial,2017_May_28_1618,
,,0.23,"[0, 0]",/sounds/legit/equal.wav,,,,,1,28,63,1,,,,,,,,,,,,,,,left,0.335411071777,,,,,participant12,23,59.8740651601,M,trial,2017_May_28_1618,
,,0.62,"[-4.5, 0]",/sounds/legit/left70.wav,,,,,1,29,64,29,,,,,,,,,,,,,,,left,0.184967041016,,,,,participant12,23,59.8740651601,M,trial,2017_May_28_1618,
,,0.23,"[-2.25, 0]",/sounds/legit/left35.wav,,,,,1,30,65,21,,,,,,,,,,,,,,,left,0.201866149902,,,,,participant12,23,59.8740651601,M,trial,2017_May_28_1618,
,,0.1,"[2.25, 0]",/sounds/legit/right35.wav,,,,,1,31,66,5,,,,,,,,,,,,,,,right,0.201693058014,,,,,participant12,23,59.8740651601,M,trial,2017_May_28_1618,
,,0.23,"[-4.5, 0]",/sounds/legit/left70.wav,,,,,1,32,67,26,,,,,,,,,,,,,,,right,2.1893119812,,,,,participant12,23,59.8740651601,M,trial,2017_May_28_1618,
,,0.49,"[0, 0]",/sounds/legit/equal.wav,,,,,1,33,68,3,,,,,,,,,,,,,,,left,1.03695988655,,,,,participant12,23,59.8740651601,M,trial,2017_May_28_1618,
,,0.1,"[-2.25, 0]",/sounds/legit/left35.wav,,,,,1,34,69,20,,,,,,,,,,,,,,,left,0.184576034546,,,,,participant12,23,59.8740651601,M,trial,2017_May_28_1618,
,,0.1,"[4.5, 0]",/sounds/legit/right70.wav,,,,,2,0,70,10,,,,,,,,,,,,,,,right,0.20191192627,,,,,participant12,23,59.8740651601,M,trial,2017_May_28_1618,
,,0.23,"[-6.75, 0]",/sounds/legit/left100.wav,,,,,2,1,71,31,,,,,,,,,,,,,,,left,0.619457960129,,,,,participant12,23,59.8740651601,M,trial,2017_May_28_1618,
,,0.1,"[-2.25, 0]",/sounds/legit/left35.wav,,,,,2,2,72,20,,,,,,,,,,,,,,,left,0.18500494957,,,,,participant12,23,59.8740651601,M,trial,2017_May_28_1618,
,,0.23,"[2.25, 0]",/sounds/legit/right35.wav,,,,,2,3,73,6,,,,,,,,,,,,,,,left,0.218466043472,,,,,participant12,23,59.8740651601,M,trial,2017_May_28_1618,
,,0.36,"[-4.5, 0]",/sounds/legit/left70.wav,,,,,2,4,74,27,,,,,,,,,,,,,,,left,3.19157600403,,,,,participant12,23,59.8740651601,M,trial,2017_May_28_1618,
,,0.36,"[6.75, 0]",/sounds/legit/right100.wav,,,,,2,5,75,17,,,,,,,,,,,,,,,right,0.368695020676,,,,,participant12,23,59.8740651601,M,trial,2017_May_28_1618,
,,0.49,"[-6.75, 0]",/sounds/legit/left100.wav,,,,,2,6,76,33,,,,,,,,,,,,,,,left,0.335407972336,,,,,participant12,23,59.8740651601,M,trial,2017_May_28_1618,
,,0.62,"[-6.75, 0]",/sounds/legit/left100.wav,,,,,2,7,77,34,,,,,,,,,,,,,,,left,0.285229921341,,,,,participant12,23,59.8740651601,M,trial,2017_May_28_1618,
,,0.1,"[-4.5, 0]",/sounds/legit/left70.wav,,,,,2,8,78,25,,,,,,,,,,,,,,,left,1.30415797234,,,,,participant12,23,59.8740651601,M,trial,2017_May_28_1618,
,,0.62,"[6.75, 0]",/sounds/legit/right100.wav,,,,,2,9,79,19,,,,,,,,,,,,,,,right,0.33536195755,,,,,participant12,23,59.8740651601,M,trial,2017_May_28_1618,
,,0.36,"[4.5, 0]",/sounds/legit/right70.wav,,,,,2,10,80,12,,,,,,,,,,,,,,,right,0.402131795883,,,,,participant12,23,59.8740651601,M,trial,2017_May_28_1618,
,,0.1,"[6.75, 0]",/sounds/legit/right100.wav,,,,,2,11,81,15,,,,,,,,,,,,,,,right,0.368731975555,,,,,participant12,23,59.8740651601,M,trial,2017_May_28_1618,
,,0.49,"[4.5, 0]",/sounds/legit/right70.wav,,,,,2,12,82,13,,,,,,,,,,,,,,,right,0.368627786636,,,,,participant12,23,59.8740651601,M,trial,2017_May_28_1618,
,,0.62,"[-2.25, 0]",/sounds/legit/left35.wav,,,,,2,13,83,24,,,,,,,,,,,,,,,left,0.35201716423,,,,,participant12,23,59.8740651601,M,trial,2017_May_28_1618,
,,0.1,"[0, 0]",/sounds/legit/equal.wav,,,,,2,14,84,0,,,,,,,,,,,,,,,left,0.2517619133,,,,,participant12,23,59.8740651601,M,trial,2017_May_28_1618,
,,0.1,"[-6.75, 0]",/sounds/legit/left100.wav,,,,,2,15,85,30,,,,,,,,,,,,,,,left,0.218644857407,,,,,participant12,23,59.8740651601,M,trial,2017_May_28_1618,
,,0.36,"[2.25, 0]",/sounds/legit/right35.wav,,,,,2,16,86,7,,,,,,,,,,,,,,,right,0.251721143723,,,,,participant12,23,59.8740651601,M,trial,2017_May_28_1618,
,,0.49,"[2.25, 0]",/sounds/legit/right35.wav,,,,,2,17,87,8,,,,,,,,,,,,,,,right,0.285449028015,,,,,participant12,23,59.8740651601,M,trial,2017_May_28_1618,
,,0.23,"[-2.25, 0]",/sounds/legit/left35.wav,,,,,2,18,88,21,,,,,,,,,,,,,,,left,0.252142190933,,,,,participant12,23,59.8740651601,M,trial,2017_May_28_1618,
,,0.62,"[4.5, 0]",/sounds/legit/right70.wav,,,,,2,19,89,14,,,,,,,,,,,,,,,right,0.234869003296,,,,,participant12,23,59.8740651601,M,trial,2017_May_28_1618,
,,0.36,"[-2.25, 0]",/sounds/legit/left35.wav,,,,,2,20,90,22,,,,,,,,,,,,,,,left,0.251916885376,,,,,participant12,23,59.8740651601,M,trial,2017_May_28_1618,
,,0.1,"[2.25, 0]",/sounds/legit/right35.wav,,,,,2,21,91,5,,,,,,,,,,,,,,,right,0.301915168762,,,,,participant12,23,59.8740651601,M,trial,2017_May_28_1618,
,,0.36,"[-6.75, 0]",/sounds/legit/left100.wav,,,,,2,22,92,32,,,,,,,,,,,,,,,left,0.268526077271,,,,,participant12,23,59.8740651601,M,trial,2017_May_28_1618,
,,0.49,"[6.75, 0]",/sounds/legit/right100.wav,,,,,2,23,93,18,,,,,,,,,,,,,,,right,0.168382883072,,,,,participant12,23,59.8740651601,M,trial,2017_May_28_1618,
,,0.49,"[-2.25, 0]",/sounds/legit/left35.wav,,,,,2,24,94,23,,,,,,,,,,,,,,,left,0.285304069519,,,,,participant12,23,59.8740651601,M,trial,2017_May_28_1618,
,,0.23,"[-4.5, 0]",/sounds/legit/left70.wav,,,,,2,25,95,26,,,,,,,,,,,,,,,left,0.619384050369,,,,,participant12,23,59.8740651601,M,trial,2017_May_28_1618,
,,0.36,"[0, 0]",/sounds/legit/equal.wav,,,,,2,26,96,2,,,,,,,,,,,,,,,left,0.435642957687,,,,,participant12,23,59.8740651601,M,trial,2017_May_28_1618,
,,0.23,"[4.5, 0]",/sounds/legit/right70.wav,,,,,2,27,97,11,,,,,,,,,,,,,,,right,0.485747814178,,,,,participant12,23,59.8740651601,M,trial,2017_May_28_1618,
,,0.62,"[0, 0]",/sounds/legit/equal.wav,,,,,2,28,98,4,,,,,,,,,,,,,,,right,0.51891207695,,,,,participant12,23,59.8740651601,M,trial,2017_May_28_1618,
,,0.62,"[2.25, 0]",/sounds/legit/right35.wav,,,,,2,29,99,9,,,,,,,,,,,,,,,right,0.4021089077,,,,,participant12,23,59.8740651601,M,trial,2017_May_28_1618,
,,0.49,"[0, 0]",/sounds/legit/equal.wav,,,,,2,30,100,3,,,,,,,,,,,,,,,left,0.468913078308,,,,,participant12,23,59.8740651601,M,trial,2017_May_28_1618,
,,0.49,"[-4.5, 0]",/sounds/legit/left70.wav,,,,,2,31,101,28,,,,,,,,,,,,,,,left,0.369004964828,,,,,participant12,23,59.8740651601,M,trial,2017_May_28_1618,
,,0.23,"[0, 0]",/sounds/legit/equal.wav,,,,,2,32,102,1,,,,,,,,,,,,,,,left,0.56916809082,,,,,participant12,23,59.8740651601,M,trial,2017_May_28_1618,
,,0.23,"[6.75, 0]",/sounds/legit/right100.wav,,,,,2,33,103,16,,,,,,,,,,,,,,,right,0.585970878601,,,,,participant12,23,59.8740651601,M,trial,2017_May_28_1618,
,,0.62,"[-4.5, 0]",/sounds/legit/left70.wav,,,,,2,34,104,29,,,,,,,,,,,,,,,left,0.284938812256,,,,,participant12,23,59.8740651601,M,trial,2017_May_28_1618,
,,0.62,"[-2.25, 0]",/sounds/legit/left35.wav,,,,,3,0,105,24,,,,,,,,,,,,,,,left,0.569133043289,,,,,participant12,23,59.8740651601,M,trial,2017_May_28_1618,
,,0.36,"[-2.25, 0]",/sounds/legit/left35.wav,,,,,3,1,106,22,,,,,,,,,,,,,,,left,0.218632936478,,,,,participant12,23,59.8740651601,M,trial,2017_May_28_1618,
,,0.49,"[-2.25, 0]",/sounds/legit/left35.wav,,,,,3,2,107,23,,,,,,,,,,,,,,,left,0.235749959946,,,,,participant12,23,59.8740651601,M,trial,2017_May_28_1618,
,,0.1,"[6.75, 0]",/sounds/legit/right100.wav,,,,,3,3,108,15,,,,,,,,,,,,,,,right,0.318623065948,,,,,participant12,23,59.8740651601,M,trial,2017_May_28_1618,
,,0.36,"[6.75, 0]",/sounds/legit/right100.wav,,,,,3,4,109,17,,,,,,,,,,,,,,,right,0.168247938156,,,,,participant12,23,59.8740651601,M,trial,2017_May_28_1618,
,,0.62,"[-4.5, 0]",/sounds/legit/left70.wav,,,,,3,5,110,29,,,,,,,,,,,,,,,left,0.302302122116,,,,,participant12,23,59.8740651601,M,trial,2017_May_28_1618,
,,0.36,"[0, 0]",/sounds/legit/equal.wav,,,,,3,6,111,2,,,,,,,,,,,,,,,left,0.16873884201,,,,,participant12,23,59.8740651601,M,trial,2017_May_28_1618,
,,0.1,"[0, 0]",/sounds/legit/equal.wav,,,,,3,7,112,0,,,,,,,,,,,,,,,left,0.201847076416,,,,,participant12,23,59.8740651601,M,trial,2017_May_28_1618,
,,0.62,"[-6.75, 0]",/sounds/legit/left100.wav,,,,,3,8,113,34,,,,,,,,,,,,,,,left,0.235373020172,,,,,participant12,23,59.8740651601,M,trial,2017_May_28_1618,
,,0.1,"[4.5, 0]",/sounds/legit/right70.wav,,,,,3,9,114,10,,,,,,,,,,,,,,,right,0.285346984863,,,,,participant12,23,59.8740651601,M,trial,2017_May_28_1618,
,,0.1,"[-4.5, 0]",/sounds/legit/left70.wav,,,,,3,10,115,25,,,,,,,,,,,,,,,left,0.35192489624,,,,,participant12,23,59.8740651601,M,trial,2017_May_28_1618,
,,0.62,"[2.25, 0]",/sounds/legit/right35.wav,,,,,3,11,116,9,,,,,,,,,,,,,,,right,0.252059936523,,,,,participant12,23,59.8740651601,M,trial,2017_May_28_1618,
,,0.49,"[-6.75, 0]",/sounds/legit/left100.wav,,,,,3,12,117,33,,,,,,,,,,,,,,,left,0.235137939453,,,,,participant12,23,59.8740651601,M,trial,2017_May_28_1618,
,,0.62,"[6.75, 0]",/sounds/legit/right100.wav,,,,,3,13,118,19,,,,,,,,,,,,,,,right,0.118220806122,,,,,participant12,23,59.8740651601,M,trial,2017_May_28_1618,
,,0.1,"[-6.75, 0]",/sounds/legit/left100.wav,,,,,3,14,119,30,,,,,,,,,,,,,,,left,0.235238075256,,,,,participant12,23,59.8740651601,M,trial,2017_May_28_1618,
,,0.23,"[4.5, 0]",/sounds/legit/right70.wav,,,,,3,15,120,11,,,,,,,,,,,,,,,right,0.335391044617,,,,,participant12,23,59.8740651601,M,trial,2017_May_28_1618,
,,0.1,"[2.25, 0]",/sounds/legit/right35.wav,,,,,3,16,121,5,,,,,,,,,,,,,,,right,0.201977014542,,,,,participant12,23,59.8740651601,M,trial,2017_May_28_1618,
,,0.23,"[6.75, 0]",/sounds/legit/right100.wav,,,,,3,17,122,16,,,,,,,,,,,,,,,right,0.235049009323,,,,,participant12,23,59.8740651601,M,trial,2017_May_28_1618,
,,0.49,"[0, 0]",/sounds/legit/equal.wav,,,,,3,18,123,3,,,,,,,,,,,,,,,right,0.135016918182,,,,,participant12,23,59.8740651601,M,trial,2017_May_28_1618,
,,0.36,"[-4.5, 0]",/sounds/legit/left70.wav,,,,,3,19,124,27,,,,,,,,,,,,,,,left,0.21852517128,,,,,participant12,23,59.8740651601,M,trial,2017_May_28_1618,
,,0.23,"[2.25, 0]",/sounds/legit/right35.wav,,,,,3,20,125,6,,,,,,,,,,,,,,,right,0.251963853836,,,,,participant12,23,59.8740651601,M,trial,2017_May_28_1618,
,,0.23,"[-2.25, 0]",/sounds/legit/left35.wav,,,,,3,21,126,21,,,,,,,,,,,,,,,left,0.101744174957,,,,,participant12,23,59.8740651601,M,trial,2017_May_28_1618,
,,0.36,"[-6.75, 0]",/sounds/legit/left100.wav,,,,,3,22,127,32,,,,,,,,,,,,,,,left,0.218522787094,,,,,participant12,23,59.8740651601,M,trial,2017_May_28_1618,
,,0.1,"[-2.25, 0]",/sounds/legit/left35.wav,,,,,3,23,128,20,,,,,,,,,,,,,,,left,0.101491928101,,,,,participant12,23,59.8740651601,M,trial,2017_May_28_1618,
,,0.62,"[4.5, 0]",/sounds/legit/right70.wav,,,,,3,24,129,14,,,,,,,,,,,,,,,right,0.134774923325,,,,,participant12,23,59.8740651601,M,trial,2017_May_28_1618,
,,0.49,"[4.5, 0]",/sounds/legit/right70.wav,,,,,3,25,130,13,,,,,,,,,,,,,,,right,0.235081911087,,,,,participant12,23,59.8740651601,M,trial,2017_May_28_1618,
,,0.23,"[-6.75, 0]",/sounds/legit/left100.wav,,,,,3,26,131,31,,,,,,,,,,,,,,,left,0.218641996384,,,,,participant12,23,59.8740651601,M,trial,2017_May_28_1618,
,,0.49,"[2.25, 0]",/sounds/legit/right35.wav,,,,,3,27,132,8,,,,,,,,,,,,,,,right,0.185195207596,,,,,participant12,23,59.8740651601,M,trial,2017_May_28_1618,
,,0.36,"[2.25, 0]",/sounds/legit/right35.wav,,,,,3,28,133,7,,,,,,,,,,,,,,,right,0.201704978943,,,,,participant12,23,59.8740651601,M,trial,2017_May_28_1618,
,,0.23,"[-4.5, 0]",/sounds/legit/left70.wav,,,,,3,29,134,26,,,,,,,,,,,,,,,left,0.118510961533,,,,,participant12,23,59.8740651601,M,trial,2017_May_28_1618,
,,0.49,"[-4.5, 0]",/sounds/legit/left70.wav,,,,,3,30,135,28,,,,,,,,,,,,,,,left,0.151637077332,,,,,participant12,23,59.8740651601,M,trial,2017_May_28_1618,
,,0.62,"[0, 0]",/sounds/legit/equal.wav,,,,,3,31,136,4,,,,,,,,,,,,,,,right,0.218162059784,,,,,participant12,23,59.8740651601,M,trial,2017_May_28_1618,
,,0.23,"[0, 0]",/sounds/legit/equal.wav,,,,,3,32,137,1,,,,,,,,,,,,,,,right,0.235198020935,,,,,participant12,23,59.8740651601,M,trial,2017_May_28_1618,
,,0.49,"[6.75, 0]",/sounds/legit/right100.wav,,,,,3,33,138,18,,,,,,,,,,,,,,,right,0.252021074295,,,,,participant12,23,59.8740651601,M,trial,2017_May_28_1618,
,,0.36,"[4.5, 0]",/sounds/legit/right70.wav,,,,,3,34,139,12,,,,,,,,,,,,,,,right,0.468734025955,,,,,participant12,23,59.8740651601,M,trial,2017_May_28_1618,
,,0.1,"[-4.5, 0]",/sounds/legit/left70.wav,,,,,4,0,140,25,,,,,,,,,,,,,,,left,0.251598119736,,,,,participant12,23,59.8740651601,M,trial,2017_May_28_1618,
,,0.62,"[4.5, 0]",/sounds/legit/right70.wav,,,,,4,1,141,14,,,,,,,,,,,,,,,right,0.236438035965,,,,,participant12,23,59.8740651601,M,trial,2017_May_28_1618,
,,0.1,"[-2.25, 0]",/sounds/legit/left35.wav,,,,,4,2,142,20,,,,,,,,,,,,,,,left,0.285320043564,,,,,participant12,23,59.8740651601,M,trial,2017_May_28_1618,
,,0.49,"[-6.75, 0]",/sounds/legit/left100.wav,,,,,4,3,143,33,,,,,,,,,,,,,,,left,0.185234069824,,,,,participant12,23,59.8740651601,M,trial,2017_May_28_1618,
,,0.62,"[-2.25, 0]",/sounds/legit/left35.wav,,,,,4,4,144,24,,,,,,,,,,,,,,,left,0.15068602562,,,,,participant12,23,59.8740651601,M,trial,2017_May_28_1618,
,,0.1,"[-6.75, 0]",/sounds/legit/left100.wav,,,,,4,5,145,30,,,,,,,,,,,,,,,left,0.235085964203,,,,,participant12,23,59.8740651601,M,trial,2017_May_28_1618,
,,0.36,"[2.25, 0]",/sounds/legit/right35.wav,,,,,4,6,146,7,,,,,,,,,,,,,,,right,0.251564025879,,,,,participant12,23,59.8740651601,M,trial,2017_May_28_1618,
,,0.62,"[-6.75, 0]",/sounds/legit/left100.wav,,,,,4,7,147,34,,,,,,,,,,,,,,,left,0.185253858566,,,,,participant12,23,59.8740651601,M,trial,2017_May_28_1618,
,,0.62,"[2.25, 0]",/sounds/legit/right35.wav,,,,,4,8,148,9,,,,,,,,,,,,,,,right,0.185120820999,,,,,participant12,23,59.8740651601,M,trial,2017_May_28_1618,
,,0.36,"[0, 0]",/sounds/legit/equal.wav,,,,,4,9,149,2,,,,,,,,,,,,,,,left,0.435354948044,,,,,participant12,23,59.8740651601,M,trial,2017_May_28_1618,
,,0.62,"[6.75, 0]",/sounds/legit/right100.wav,,,,,4,10,150,19,,,,,,,,,,,,,,,right,0.117413043976,,,,,participant12,23,59.8740651601,M,trial,2017_May_28_1618,
,,0.23,"[2.25, 0]",/sounds/legit/right35.wav,,,,,4,11,151,6,,,,,,,,,,,,,,,right,0.20174908638,,,,,participant12,23,59.8740651601,M,trial,2017_May_28_1618,
,,0.49,"[4.5, 0]",/sounds/legit/right70.wav,,,,,4,12,152,13,,,,,,,,,,,,,,,right,0.26867389679,,,,,participant12,23,59.8740651601,M,trial,2017_May_28_1618,
,,0.23,"[-4.5, 0]",/sounds/legit/left70.wav,,,,,4,13,153,26,,,,,,,,,,,,,,,left,0.252048969269,,,,,participant12,23,59.8740651601,M,trial,2017_May_28_1618,
,,0.23,"[4.5, 0]",/sounds/legit/right70.wav,,,,,4,14,154,11,,,,,,,,,,,,,,,right,0.218641996384,,,,,participant12,23,59.8740651601,M,trial,2017_May_28_1618,
,,0.36,"[4.5, 0]",/sounds/legit/right70.wav,,,,,4,15,155,12,,,,,,,,,,,,,,,right,0.251947164536,,,,,participant12,23,59.8740651601,M,trial,2017_May_28_1618,
,,0.62,"[-4.5, 0]",/sounds/legit/left70.wav,,,,,4,16,156,29,,,,,,,,,,,,,,,left,0.218532085419,,,,,participant12,23,59.8740651601,M,trial,2017_May_28_1618,
,,0.1,"[0, 0]",/sounds/legit/equal.wav,,,,,4,17,157,0,,,,,,,,,,,,,,,left,0.268430948257,,,,,participant12,23,59.8740651601,M,trial,2017_May_28_1618,
,,0.49,"[2.25, 0]",/sounds/legit/right35.wav,,,,,4,18,158,8,,,,,,,,,,,,,,,right,0.135089874268,,,,,participant12,23,59.8740651601,M,trial,2017_May_28_1618,
,,0.36,"[-4.5, 0]",/sounds/legit/left70.wav,,,,,4,19,159,27,,,,,,,,,,,,,,,left,0.218420028687,,,,,participant12,23,59.8740651601,M,trial,2017_May_28_1618,
,,0.1,"[4.5, 0]",/sounds/legit/right70.wav,,,,,4,20,160,10,,,,,,,,,,,,,,,right,0.150780916214,,,,,participant12,23,59.8740651601,M,trial,2017_May_28_1618,
,,0.49,"[0, 0]",/sounds/legit/equal.wav,,,,,4,21,161,3,,,,,,,,,,,,,,,left,0.0851631164551,,,,,participant12,23,59.8740651601,M,trial,2017_May_28_1618,
,,0.23,"[-6.75, 0]",/sounds/legit/left100.wav,,,,,4,22,162,31,,,,,,,,,,,,,,,left,0.18492102623,,,,,participant12,23,59.8740651601,M,trial,2017_May_28_1618,
,,0.49,"[-2.25, 0]",/sounds/legit/left35.wav,,,,,4,23,163,23,,,,,,,,,,,,,,,left,0.0849161148071,,,,,participant12,23,59.8740651601,M,trial,2017_May_28_1618,
,,0.49,"[-4.5, 0]",/sounds/legit/left70.wav,,,,,4,24,164,28,,,,,,,,,,,,,,,left,0.135128974915,,,,,participant12,23,59.8740651601,M,trial,2017_May_28_1618,
,,0.23,"[-2.25, 0]",/sounds/legit/left35.wav,,,,,4,25,165,21,,,,,,,,,,,,,,,left,2.84083104134,,,,,participant12,23,59.8740651601,M,trial,2017_May_28_1618,
,,0.23,"[0, 0]",/sounds/legit/equal.wav,,,,,4,26,166,1,,,,,,,,,,,,,,,left,0.352431774139,,,,,participant12,23,59.8740651601,M,trial,2017_May_28_1618,
,,0.36,"[-2.25, 0]",/sounds/legit/left35.wav,,,,,4,27,167,22,,,,,,,,,,,,,,,left,0.268640041351,,,,,participant12,23,59.8740651601,M,trial,2017_May_28_1618,
,,0.23,"[6.75, 0]",/sounds/legit/right100.wav,,,,,4,28,168,16,,,,,,,,,,,,,,,right,2.47346305847,,,,,participant12,23,59.8740651601,M,trial,2017_May_28_1618,
,,0.36,"[-6.75, 0]",/sounds/legit/left100.wav,,,,,4,29,169,32,,,,,,,,,,,,,,,left,0.285372018814,,,,,participant12,23,59.8740651601,M,trial,2017_May_28_1618,
,,0.36,"[6.75, 0]",/sounds/legit/right100.wav,,,,,4,30,170,17,,,,,,,,,,,,,,,right,0.468803882599,,,,,participant12,23,59.8740651601,M,trial,2017_May_28_1618,
,,0.1,"[2.25, 0]",/sounds/legit/right35.wav,,,,,4,31,171,5,,,,,,,,,,,,,,,right,0.352074146271,,,,,participant12,23,59.8740651601,M,trial,2017_May_28_1618,
,,0.49,"[6.75, 0]",/sounds/legit/right100.wav,,,,,4,32,172,18,,,,,,,,,,,,,,,right,0.30192399025,,,,,participant12,23,59.8740651601,M,trial,2017_May_28_1618,
,,0.62,"[0, 0]",/sounds/legit/equal.wav,,,,,4,33,173,4,,,,,,,,,,,,,,,right,0.469232082367,,,,,participant12,23,59.8740651601,M,trial,2017_May_28_1618,
,,0.1,"[6.75, 0]",/sounds/legit/right100.wav,,,,,4,34,174,15,,,,,,,,,,,,,,,right,0.285202026367,,,,,participant12,23,59.8740651601,M,trial,2017_May_28_1618,
,,0.1,"[0, 0]",/sounds/legit/equal.wav,,,,,5,0,175,0,,,,,,,,,,,,,,,left,0.201810121536,,,,,participant12,23,59.8740651601,M,trial,2017_May_28_1618,
,,0.23,"[-2.25, 0]",/sounds/legit/left35.wav,,,,,5,1,176,21,,,,,,,,,,,,,,,left,0.235298871994,,,,,participant12,23,59.8740651601,M,trial,2017_May_28_1618,
,,0.49,"[0, 0]",/sounds/legit/equal.wav,,,,,5,2,177,3,,,,,,,,,,,,,,,left,0.285298109055,,,,,participant12,23,59.8740651601,M,trial,2017_May_28_1618,
,,0.62,"[-2.25, 0]",/sounds/legit/left35.wav,,,,,5,3,178,24,,,,,,,,,,,,,,,left,0.251840114594,,,,,participant12,23,59.8740651601,M,trial,2017_May_28_1618,
,,0.1,"[4.5, 0]",/sounds/legit/right70.wav,,,,,5,4,179,10,,,,,,,,,,,,,,,right,0.502366065979,,,,,participant12,23,59.8740651601,M,trial,2017_May_28_1618,
,,0.49,"[-2.25, 0]",/sounds/legit/left35.wav,,,,,5,5,180,23,,,,,,,,,,,,,,,left,0.268419981003,,,,,participant12,23,59.8740651601,M,trial,2017_May_28_1618,
,,0.62,"[4.5, 0]",/sounds/legit/right70.wav,,,,,5,6,181,14,,,,,,,,,,,,,,,right,0.485587120056,,,,,participant12,23,59.8740651601,M,trial,2017_May_28_1618,
,,0.36,"[-6.75, 0]",/sounds/legit/left100.wav,,,,,5,7,182,32,,,,,,,,,,,,,,,left,0.251728057861,,,,,participant12,23,59.8740651601,M,trial,2017_May_28_1618,
,,0.49,"[2.25, 0]",/sounds/legit/right35.wav,,,,,5,8,183,8,,,,,,,,,,,,,,,right,0.368085861206,,,,,participant12,23,59.8740651601,M,trial,2017_May_28_1618,
,,0.23,"[4.5, 0]",/sounds/legit/right70.wav,,,,,5,9,184,11,,,,,,,,,,,,,,,right,0.218488931656,,,,,participant12,23,59.8740651601,M,trial,2017_May_28_1618,
,,0.1,"[-4.5, 0]",/sounds/legit/left70.wav,,,,,5,10,185,25,,,,,,,,,,,,,,,left,0.301980018616,,,,,participant12,23,59.8740651601,M,trial,2017_May_28_1618,
,,0.23,"[2.25, 0]",/sounds/legit/right35.wav,,,,,5,11,186,6,,,,,,,,,,,,,,,right,0.168408155441,,,,,participant12,23,59.8740651601,M,trial,2017_May_28_1618,
,,0.62,"[2.25, 0]",/sounds/legit/right35.wav,,,,,5,12,187,9,,,,,,,,,,,,,,,right,0.201785087585,,,,,participant12,23,59.8740651601,M,trial,2017_May_28_1618,
,,0.1,"[-2.25, 0]",/sounds/legit/left35.wav,,,,,5,13,188,20,,,,,,,,,,,,,,,left,0.0513570308685,,,,,participant12,23,59.8740651601,M,trial,2017_May_28_1618,
,,0.36,"[0, 0]",/sounds/legit/equal.wav,,,,,5,14,189,2,,,,,,,,,,,,,,,left,0.318476915359,,,,,participant12,23,59.8740651601,M,trial,2017_May_28_1618,
,,0.62,"[0, 0]",/sounds/legit/equal.wav,,,,,5,15,190,4,,,,,,,,,,,,,,,left,0.151633024216,,,,,participant12,23,59.8740651601,M,trial,2017_May_28_1618,
,,0.49,"[4.5, 0]",/sounds/legit/right70.wav,,,,,5,16,191,13,,,,,,,,,,,,,,,right,0.285348892212,,,,,participant12,23,59.8740651601,M,trial,2017_May_28_1618,
,,0.1,"[2.25, 0]",/sounds/legit/right35.wav,,,,,5,17,192,5,,,,,,,,,,,,,,,right,0.184942007065,,,,,participant12,23,59.8740651601,M,trial,2017_May_28_1618,
,,0.23,"[-4.5, 0]",/sounds/legit/left70.wav,,,,,5,18,193,26,,,,,,,,,,,,,,,left,0.235276937485,,,,,participant12,23,59.8740651601,M,trial,2017_May_28_1618,
,,0.36,"[-4.5, 0]",/sounds/legit/left70.wav,,,,,5,19,194,27,,,,,,,,,,,,,,,left,0.151669979095,,,,,participant12,23,59.8740651601,M,trial,2017_May_28_1618,
,,0.36,"[2.25, 0]",/sounds/legit/right35.wav,,,,,5,20,195,7,,,,,,,,,,,,,,,right,0.235298871994,,,,,participant12,23,59.8740651601,M,trial,2017_May_28_1618,
,,0.36,"[6.75, 0]",/sounds/legit/right100.wav,,,,,5,21,196,17,,,,,,,,,,,,,,,right,0.251934051514,,,,,participant12,23,59.8740651601,M,trial,2017_May_28_1618,
,,0.62,"[-4.5, 0]",/sounds/legit/left70.wav,,,,,5,22,197,29,,,,,,,,,,,,,,,left,0.185127973557,,,,,participant12,23,59.8740651601,M,trial,2017_May_28_1618,
,,0.1,"[6.75, 0]",/sounds/legit/right100.wav,,,,,5,23,198,15,,,,,,,,,,,,,,,right,0.285202026367,,,,,participant12,23,59.8740651601,M,trial,2017_May_28_1618,
,,0.49,"[-4.5, 0]",/sounds/legit/left70.wav,,,,,5,24,199,28,,,,,,,,,,,,,,,left,0.118201971054,,,,,participant12,23,59.8740651601,M,trial,2017_May_28_1618,
,,0.49,"[-6.75, 0]",/sounds/legit/left100.wav,,,,,5,25,200,33,,,,,,,,,,,,,,,left,0.200839996338,,,,,participant12,23,59.8740651601,M,trial,2017_May_28_1618,
,,0.36,"[4.5, 0]",/sounds/legit/right70.wav,,,,,5,26,201,12,,,,,,,,,,,,,,,right,0.151521921158,,,,,participant12,23,59.8740651601,M,trial,2017_May_28_1618,
,,0.49,"[6.75, 0]",/sounds/legit/right100.wav,,,,,5,27,202,18,,,,,,,,,,,,,,,right,0.13495016098,,,,,participant12,23,59.8740651601,M,trial,2017_May_28_1618,
,,0.1,"[-6.75, 0]",/sounds/legit/left100.wav,,,,,5,28,203,30,,,,,,,,,,,,,,,left,0.0179069042206,,,,,participant12,23,59.8740651601,M,trial,2017_May_28_1618,
,,0.62,"[-6.75, 0]",/sounds/legit/left100.wav,,,,,5,29,204,34,,,,,,,,,,,,,,,left,2.35654902458,,,,,participant12,23,59.8740651601,M,trial,2017_May_28_1618,
,,0.23,"[0, 0]",/sounds/legit/equal.wav,,,,,5,30,205,1,,,,,,,,,,,,,,,left,0.15060710907,,,,,participant12,23,59.8740651601,M,trial,2017_May_28_1618,
,,0.23,"[6.75, 0]",/sounds/legit/right100.wav,,,,,5,31,206,16,,,,,,,,,,,,,,,right,0.0026388168335,,,,,participant12,23,59.8740651601,M,trial,2017_May_28_1618,
,,0.23,"[-6.75, 0]",/sounds/legit/left100.wav,,,,,5,32,207,31,,,,,,,,,,,,,,,left,0.168473005295,,,,,participant12,23,59.8740651601,M,trial,2017_May_28_1618,
,,0.62,"[6.75, 0]",/sounds/legit/right100.wav,,,,,5,33,208,19,,,,,,,,,,,,,,,right,0.251877069473,,,,,participant12,23,59.8740651601,M,trial,2017_May_28_1618,
,,0.36,"[-2.25, 0]",/sounds/legit/left35.wav,,,,,5,34,209,22,,,,,,,,,,,,,,,left,0.285185813904,,,,,participant12,23,59.8740651601,M,trial,2017_May_28_1618,
,,0.62,"[6.75, 0]",/sounds/legit/right100.wav,,,,,6,0,210,19,,,,,,,,,,,,,,,right,0.235126972198,,,,,participant12,23,59.8740651601,M,trial,2017_May_28_1618,
,,0.23,"[2.25, 0]",/sounds/legit/right35.wav,,,,,6,1,211,6,,,,,,,,,,,,,,,right,0.151548147202,,,,,participant12,23,59.8740651601,M,trial,2017_May_28_1618,
,,0.1,"[4.5, 0]",/sounds/legit/right70.wav,,,,,6,2,212,10,,,,,,,,,,,,,,,right,0.20175409317,,,,,participant12,23,59.8740651601,M,trial,2017_May_28_1618,
,,0.36,"[6.75, 0]",/sounds/legit/right100.wav,,,,,6,3,213,17,,,,,,,,,,,,,,,right,0.0846779346466,,,,,participant12,23,59.8740651601,M,trial,2017_May_28_1618,
,,0.23,"[0, 0]",/sounds/legit/equal.wav,,,,,6,4,214,1,,,,,,,,,,,,,,,left,0.218559980392,,,,,participant12,23,59.8740651601,M,trial,2017_May_28_1618,
,,0.23,"[6.75, 0]",/sounds/legit/right100.wav,,,,,6,5,215,16,,,,,,,,,,,,,,,right,0.368782043457,,,,,participant12,23,59.8740651601,M,trial,2017_May_28_1618,
,,0.49,"[-2.25, 0]",/sounds/legit/left35.wav,,,,,6,6,216,23,,,,,,,,,,,,,,,left,1.05391383171,,,,,participant12,23,59.8740651601,M,trial,2017_May_28_1618,
,,0.49,"[4.5, 0]",/sounds/legit/right70.wav,,,,,6,7,217,13,,,,,,,,,,,,,,,right,0.150948047638,,,,,participant12,23,59.8740651601,M,trial,2017_May_28_1618,
,,0.62,"[-2.25, 0]",/sounds/legit/left35.wav,,,,,6,8,218,24,,,,,,,,,,,,,,,left,0.201745986938,,,,,participant12,23,59.8740651601,M,trial,2017_May_28_1618,
,,0.49,"[0, 0]",/sounds/legit/equal.wav,,,,,6,9,219,3,,,,,,,,,,,,,,,left,0.602829933167,,,,,participant12,23,59.8740651601,M,trial,2017_May_28_1618,
,,0.62,"[4.5, 0]",/sounds/legit/right70.wav,,,,,6,10,220,14,,,,,,,,,,,,,,,right,0.252043962479,,,,,participant12,23,59.8740651601,M,trial,2017_May_28_1618,
,,0.36,"[-2.25, 0]",/sounds/legit/left35.wav,,,,,6,11,221,22,,,,,,,,,,,,,,,left,0.886868000031,,,,,participant12,23,59.8740651601,M,trial,2017_May_28_1618,
,,0.36,"[2.25, 0]",/sounds/legit/right35.wav,,,,,6,12,222,7,,,,,,,,,,,,,,,left,1.47114896774,,,,,participant12,23,59.8740651601,M,trial,2017_May_28_1618,
,,0.23,"[-4.5, 0]",/sounds/legit/left70.wav,,,,,6,13,223,26,,,,,,,,,,,,,,,left,0.134944915771,,,,,participant12,23,59.8740651601,M,trial,2017_May_28_1618,
,,0.23,"[-2.25, 0]",/sounds/legit/left35.wav,,,,,6,14,224,21,,,,,,,,,,,,,,,left,0.268543958664,,,,,participant12,23,59.8740651601,M,trial,2017_May_28_1618,
,,0.1,"[-4.5, 0]",/sounds/legit/left70.wav,,,,,6,15,225,25,,,,,,,,,,,,,,,left,0.15168094635,,,,,participant12,23,59.8740651601,M,trial,2017_May_28_1618,
,,0.62,"[-6.75, 0]",/sounds/legit/left100.wav,,,,,6,16,226,34,,,,,,,,,,,,,,,left,0.285124063492,,,,,participant12,23,59.8740651601,M,trial,2017_May_28_1618,
,,0.62,"[2.25, 0]",/sounds/legit/right35.wav,,,,,6,17,227,9,,,,,,,,,,,,,,,right,0.251730918884,,,,,participant12,23,59.8740651601,M,trial,2017_May_28_1618,
,,0.1,"[-2.25, 0]",/sounds/legit/left35.wav,,,,,6,18,228,20,,,,,,,,,,,,,,,left,0.118088960648,,,,,participant12,23,59.8740651601,M,trial,2017_May_28_1618,
,,0.49,"[-6.75, 0]",/sounds/legit/left100.wav,,,,,6,19,229,33,,,,,,,,,,,,,,,left,0.48582816124,,,,,participant12,23,59.8740651601,M,trial,2017_May_28_1618,
,,0.1,"[6.75, 0]",/sounds/legit/right100.wav,,,,,6,20,230,15,,,,,,,,,,,,,,,left,0.736013174057,,,,,participant12,23,59.8740651601,M,trial,2017_May_28_1618,
,,0.36,"[-4.5, 0]",/sounds/legit/left70.wav,,,,,6,21,231,27,,,,,,,,,,,,,,,right,0.134069919586,,,,,participant12,23,59.8740651601,M,trial,2017_May_28_1618,
,,0.62,"[-4.5, 0]",/sounds/legit/left70.wav,,,,,6,22,232,29,,,,,,,,,,,,,,,left,0.185129880905,,,,,participant12,23,59.8740651601,M,trial,2017_May_28_1618,
,,0.36,"[4.5, 0]",/sounds/legit/right70.wav,,,,,6,23,233,12,,,,,,,,,,,,,,,right,0.151591062546,,,,,participant12,23,59.8740651601,M,trial,2017_May_28_1618,
,,0.23,"[-6.75, 0]",/sounds/legit/left100.wav,,,,,6,24,234,31,,,,,,,,,,,,,,,left,0.853110074997,,,,,participant12,23,59.8740651601,M,trial,2017_May_28_1618,
,,0.49,"[6.75, 0]",/sounds/legit/right100.wav,,,,,6,25,235,18,,,,,,,,,,,,,,,right,0.20178604126,,,,,participant12,23,59.8740651601,M,trial,2017_May_28_1618,
,,0.36,"[-6.75, 0]",/sounds/legit/left100.wav,,,,,6,26,236,32,,,,,,,,,,,,,,,left,0.485664844513,,,,,participant12,23,59.8740651601,M,trial,2017_May_28_1618,
,,0.1,"[0, 0]",/sounds/legit/equal.wav,,,,,6,27,237,0,,,,,,,,,,,,,,,left,0.118328094482,,,,,participant12,23,59.8740651601,M,trial,2017_May_28_1618,
,,0.23,"[4.5, 0]",/sounds/legit/right70.wav,,,,,6,28,238,11,,,,,,,,,,,,,,,right,0.151425123215,,,,,participant12,23,59.8740651601,M,trial,2017_May_28_1618,
,,0.1,"[-6.75, 0]",/sounds/legit/left100.wav,,,,,6,29,239,30,,,,,,,,,,,,,,,left,0.185194969177,,,,,participant12,23,59.8740651601,M,trial,2017_May_28_1618,
,,0.49,"[2.25, 0]",/sounds/legit/right35.wav,,,,,6,30,240,8,,,,,,,,,,,,,,,right,0.151669979095,,,,,participant12,23,59.8740651601,M,trial,2017_May_28_1618,
,,0.49,"[-4.5, 0]",/sounds/legit/left70.wav,,,,,6,31,241,28,,,,,,,,,,,,,,,left,0.134979009628,,,,,participant12,23,59.8740651601,M,trial,2017_May_28_1618,
,,0.1,"[2.25, 0]",/sounds/legit/right35.wav,,,,,6,32,242,5,,,,,,,,,,,,,,,right,0.151674985886,,,,,participant12,23,59.8740651601,M,trial,2017_May_28_1618,
,,0.36,"[0, 0]",/sounds/legit/equal.wav,,,,,6,33,243,2,,,,,,,,,,,,,,,left,0.201740980148,,,,,participant12,23,59.8740651601,M,trial,2017_May_28_1618,
,,0.62,"[0, 0]",/sounds/legit/equal.wav,,,,,6,34,244,4,,,,,,,,,,,,,,,left,0.168384075165,,,,,participant12,23,59.8740651601,M,trial,2017_May_28_1618,
,,0.36,"[4.5, 0]",/sounds/legit/right70.wav,,,,,7,0,245,12,,,,,,,,,,,,,,,right,0.235132932663,,,,,participant12,23,59.8740651601,M,trial,2017_May_28_1618,
,,0.23,"[-4.5, 0]",/sounds/legit/left70.wav,,,,,7,1,246,26,,,,,,,,,,,,,,,left,0.401991128922,,,,,participant12,23,59.8740651601,M,trial,2017_May_28_1618,
,,0.49,"[6.75, 0]",/sounds/legit/right100.wav,,,,,7,2,247,18,,,,,,,,,,,,,,,right,0.201716899872,,,,,participant12,23,59.8740651601,M,trial,2017_May_28_1618,
,,0.1,"[-2.25, 0]",/sounds/legit/left35.wav,,,,,7,3,248,20,,,,,,,,,,,,,,,left,0.151684999466,,,,,participant12,23,59.8740651601,M,trial,2017_May_28_1618,
,,0.36,"[6.75, 0]",/sounds/legit/right100.wav,,,,,7,4,249,17,,,,,,,,,,,,,,,right,0.15145111084,,,,,participant12,23,59.8740651601,M,trial,2017_May_28_1618,
,,0.49,"[2.25, 0]",/sounds/legit/right35.wav,,,,,7,5,250,8,,,,,,,,,,,,,,,right,0.585911989212,,,,,participant12,23,59.8740651601,M,trial,2017_May_28_1618,
,,0.49,"[-6.75, 0]",/sounds/legit/left100.wav,,,,,7,6,251,33,,,,,,,,,,,,,,,left,0.5525598526,,,,,participant12,23,59.8740651601,M,trial,2017_May_28_1618,
,,0.23,"[0, 0]",/sounds/legit/equal.wav,,,,,7,7,252,1,,,,,,,,,,,,,,,left,0.0847370624542,,,,,participant12,23,59.8740651601,M,trial,2017_May_28_1618,
,,0.1,"[4.5, 0]",/sounds/legit/right70.wav,,,,,7,8,253,10,,,,,,,,,,,,,,,right,0.235265016556,,,,,participant12,23,59.8740651601,M,trial,2017_May_28_1618,
,,0.1,"[0, 0]",/sounds/legit/equal.wav,,,,,7,9,254,0,,,,,,,,,,,,,,,left,0.135027885437,,,,,participant12,23,59.8740651601,M,trial,2017_May_28_1618,
,,0.23,"[-6.75, 0]",/sounds/legit/left100.wav,,,,,7,10,255,31,,,,,,,,,,,,,,,left,0.201868057251,,,,,participant12,23,59.8740651601,M,trial,2017_May_28_1618,
,,0.36,"[-2.25, 0]",/sounds/legit/left35.wav,,,,,7,11,256,22,,,,,,,,,,,,,,,left,0.168143033981,,,,,participant12,23,59.8740651601,M,trial,2017_May_28_1618,
,,0.1,"[6.75, 0]",/sounds/legit/right100.wav,,,,,7,12,257,15,,,,,,,,,,,,,,,right,0.201580047607,,,,,participant12,23,59.8740651601,M,trial,2017_May_28_1618,
,,0.23,"[-2.25, 0]",/sounds/legit/left35.wav,,,,,7,13,258,21,,,,,,,,,,,,,,,left,0.18492102623,,,,,participant12,23,59.8740651601,M,trial,2017_May_28_1618,
,,0.49,"[-4.5, 0]",/sounds/legit/left70.wav,,,,,7,14,259,28,,,,,,,,,,,,,,,left,1.12065315247,,,,,participant12,23,59.8740651601,M,trial,2017_May_28_1618,
,,0.49,"[4.5, 0]",/sounds/legit/right70.wav,,,,,7,15,260,13,,,,,,,,,,,,,,,right,0.318480968475,,,,,participant12,23,59.8740651601,M,trial,2017_May_28_1618,
,,0.36,"[-6.75, 0]",/sounds/legit/left100.wav,,,,,7,16,261,32,,,,,,,,,,,,,,,left,0.0846719741821,,,,,participant12,23,59.8740651601,M,trial,2017_May_28_1618,
,,0.62,"[6.75, 0]",/sounds/legit/right100.wav,,,,,7,17,262,19,,,,,,,,,,,,,,,right,0.218711137772,,,,,participant12,23,59.8740651601,M,trial,2017_May_28_1618,
,,0.23,"[2.25, 0]",/sounds/legit/right35.wav,,,,,7,18,263,6,,,,,,,,,,,,,,,right,0.435606956482,,,,,participant12,23,59.8740651601,M,trial,2017_May_28_1618,
,,0.62,"[-4.5, 0]",/sounds/legit/left70.wav,,,,,7,19,264,29,,,,,,,,,,,,,,,left,0.20170712471,,,,,participant12,23,59.8740651601,M,trial,2017_May_28_1618,
,,0.62,"[0, 0]",/sounds/legit/equal.wav,,,,,7,20,265,4,,,,,,,,,,,,,,,left,0.235183000565,,,,,participant12,23,59.8740651601,M,trial,2017_May_28_1618,
,,0.62,"[2.25, 0]",/sounds/legit/right35.wav,,,,,7,21,266,9,,,,,,,,,,,,,,,right,0.168255090714,,,,,participant12,23,59.8740651601,M,trial,2017_May_28_1618,
,,0.36,"[-4.5, 0]",/sounds/legit/left70.wav,,,,,7,22,267,27,,,,,,,,,,,,,,,left,0.134932994843,,,,,participant12,23,59.8740651601,M,trial,2017_May_28_1618,
,,0.62,"[-2.25, 0]",/sounds/legit/left35.wav,,,,,7,23,268,24,,,,,,,,,,,,,,,left,0.201681852341,,,,,participant12,23,59.8740651601,M,trial,2017_May_28_1618,
,,0.1,"[-6.75, 0]",/sounds/legit/left100.wav,,,,,7,24,269,30,,,,,,,,,,,,,,,left,0.000416994094849,,,,,participant12,23,59.8740651601,M,trial,2017_May_28_1618,
,,0.36,"[2.25, 0]",/sounds/legit/right35.wav,,,,,7,25,270,7,,,,,,,,,,,,,,,right,0.26877117157,,,,,participant12,23,59.8740651601,M,trial,2017_May_28_1618,
,,0.49,"[0, 0]",/sounds/legit/equal.wav,,,,,7,26,271,3,,,,,,,,,,,,,,,left,0.251909017563,,,,,participant12,23,59.8740651601,M,trial,2017_May_28_1618,
,,0.36,"[0, 0]",/sounds/legit/equal.wav,,,,,7,27,272,2,,,,,,,,,,,,,,,left,0.235249996185,,,,,participant12,23,59.8740651601,M,trial,2017_May_28_1618,
,,0.1,"[-4.5, 0]",/sounds/legit/left70.wav,,,,,7,28,273,25,,,,,,,,,,,,,,,left,0.168385028839,,,,,participant12,23,59.8740651601,M,trial,2017_May_28_1618,
,,0.62,"[-6.75, 0]",/sounds/legit/left100.wav,,,,,7,29,274,34,,,,,,,,,,,,,,,left,0.151594161987,,,,,participant12,23,59.8740651601,M,trial,2017_May_28_1618,
,,0.62,"[4.5, 0]",/sounds/legit/right70.wav,,,,,7,30,275,14,,,,,,,,,,,,,,,right,0.585975885391,,,,,participant12,23,59.8740651601,M,trial,2017_May_28_1618,
,,0.23,"[6.75, 0]",/sounds/legit/right100.wav,,,,,7,31,276,16,,,,,,,,,,,,,,,right,0.285206079483,,,,,participant12,23,59.8740651601,M,trial,2017_May_28_1618,
,,0.23,"[4.5, 0]",/sounds/legit/right70.wav,,,,,7,32,277,11,,,,,,,,,,,,,,,right,0.335180997849,,,,,participant12,23,59.8740651601,M,trial,2017_May_28_1618,
,,0.49,"[-2.25, 0]",/sounds/legit/left35.wav,,,,,7,33,278,23,,,,,,,,,,,,,,,left,0.201745986938,,,,,participant12,23,59.8740651601,M,trial,2017_May_28_1618,
,,0.1,"[2.25, 0]",/sounds/legit/right35.wav,,,,,7,34,279,5,,,,,,,,,,,,,,,right,0.151570081711,,,,,participant12,23,59.8740651601,M,trial,2017_May_28_1618,
,,0.49,"[2.25, 0]",/sounds/legit/right35.wav,,,,,8,0,280,8,,,,,,,,,,,,,,,right,0.168380975723,,,,,participant12,23,59.8740651601,M,trial,2017_May_28_1618,
,,0.36,"[6.75, 0]",/sounds/legit/right100.wav,,,,,8,1,281,17,,,,,,,,,,,,,,,right,0.151641130447,,,,,participant12,23,59.8740651601,M,trial,2017_May_28_1618,
,,0.62,"[0, 0]",/sounds/legit/equal.wav,,,,,8,2,282,4,,,,,,,,,,,,,,,left,1.00351309776,,,,,participant12,23,59.8740651601,M,trial,2017_May_28_1618,
,,0.49,"[-4.5, 0]",/sounds/legit/left70.wav,,,,,8,3,283,28,,,,,,,,,,,,,,,left,0.13467001915,,,,,participant12,23,59.8740651601,M,trial,2017_May_28_1618,
,,0.1,"[6.75, 0]",/sounds/legit/right100.wav,,,,,8,4,284,15,,,,,,,,,,,,,,,right,0.135031938553,,,,,participant12,23,59.8740651601,M,trial,2017_May_28_1618,
,,0.23,"[2.25, 0]",/sounds/legit/right35.wav,,,,,8,5,285,6,,,,,,,,,,,,,,,right,0.151541948318,,,,,participant12,23,59.8740651601,M,trial,2017_May_28_1618,
,,0.23,"[0, 0]",/sounds/legit/equal.wav,,,,,8,6,286,1,,,,,,,,,,,,,,,left,0.134720087051,,,,,participant12,23,59.8740651601,M,trial,2017_May_28_1618,
,,0.49,"[6.75, 0]",/sounds/legit/right100.wav,,,,,8,7,287,18,,,,,,,,,,,,,,,right,0.118113040924,,,,,participant12,23,59.8740651601,M,trial,2017_May_28_1618,
,,0.23,"[6.75, 0]",/sounds/legit/right100.wav,,,,,8,8,288,16,,,,,,,,,,,,,,,right,0.134910106659,,,,,participant12,23,59.8740651601,M,trial,2017_May_28_1618,
,,0.62,"[-6.75, 0]",/sounds/legit/left100.wav,,,,,8,9,289,34,,,,,,,,,,,,,,,left,0.201756000519,,,,,participant12,23,59.8740651601,M,trial,2017_May_28_1618,
,,0.36,"[-6.75, 0]",/sounds/legit/left100.wav,,,,,8,10,290,32,,,,,,,,,,,,,,,left,0.00125002861023,,,,,participant12,23,59.8740651601,M,trial,2017_May_28_1618,
,,0.49,"[0, 0]",/sounds/legit/equal.wav,,,,,8,11,291,3,,,,,,,,,,,,,,,left,0.920208930969,,,,,participant12,23,59.8740651601,M,trial,2017_May_28_1618,
,,0.23,"[4.5, 0]",/sounds/legit/right70.wav,,,,,8,12,292,11,,,,,,,,,,,,,,,right,0.0849339962006,,,,,participant12,23,59.8740651601,M,trial,2017_May_28_1618,
,,0.36,"[0, 0]",/sounds/legit/equal.wav,,,,,8,13,293,2,,,,,,,,,,,,,,,left,0.318769931793,,,,,participant12,23,59.8740651601,M,trial,2017_May_28_1618,
,,0.62,"[-4.5, 0]",/sounds/legit/left70.wav,,,,,8,14,294,29,,,,,,,,,,,,,,,left,0.0181159973145,,,,,participant12,23,59.8740651601,M,trial,2017_May_28_1618,
,,0.62,"[-2.25, 0]",/sounds/legit/left35.wav,,,,,8,15,295,24,,,,,,,,,,,,,,,left,0.251544952393,,,,,participant12,23,59.8740651601,M,trial,2017_May_28_1618,
,,0.1,"[-2.25, 0]",/sounds/legit/left35.wav,,,,,8,16,296,20,,,,,,,,,,,,,,,left,0.168195009232,,,,,participant12,23,59.8740651601,M,trial,2017_May_28_1618,
,,0.62,"[2.25, 0]",/sounds/legit/right35.wav,,,,,8,17,297,9,,,,,,,,,,,,,,,right,0.185141086578,,,,,participant12,23,59.8740651601,M,trial,2017_May_28_1618,
,,0.36,"[-4.5, 0]",/sounds/legit/left70.wav,,,,,8,18,298,27,,,,,,,,,,,,,,,left,0.185146808624,,,,,participant12,23,59.8740651601,M,trial,2017_May_28_1618,
,,0.1,"[2.25, 0]",/sounds/legit/right35.wav,,,,,8,19,299,5,,,,,,,,,,,,,,,right,0.218468904495,,,,,participant12,23,59.8740651601,M,trial,2017_May_28_1618,
,,0.1,"[0, 0]",/sounds/legit/equal.wav,,,,,8,20,300,0,,,,,,,,,,,,,,,left,0.836472988129,,,,,participant12,23,59.8740651601,M,trial,2017_May_28_1618,
,,0.23,"[-2.25, 0]",/sounds/legit/left35.wav,,,,,8,21,301,21,,,,,,,,,,,,,,,left,0.402251958847,,,,,participant12,23,59.8740651601,M,trial,2017_May_28_1618,
,,0.36,"[2.25, 0]",/sounds/legit/right35.wav,,,,,8,22,302,7,,,,,,,,,,,,,,,right,0.151537895203,,,,,participant12,23,59.8740651601,M,trial,2017_May_28_1618,
,,0.1,"[4.5, 0]",/sounds/legit/right70.wav,,,,,8,23,303,10,,,,,,,,,,,,,,,right,0.853135108948,,,,,participant12,23,59.8740651601,M,trial,2017_May_28_1618,
,,0.49,"[-2.25, 0]",/sounds/legit/left35.wav,,,,,8,24,304,23,,,,,,,,,,,,,,,left,0.218374013901,,,,,participant12,23,59.8740651601,M,trial,2017_May_28_1618,
,,0.62,"[6.75, 0]",/sounds/legit/right100.wav,,,,,8,25,305,19,,,,,,,,,,,,,,,right,0.235764980316,,,,,participant12,23,59.8740651601,M,trial,2017_May_28_1618,
,,0.1,"[-4.5, 0]",/sounds/legit/left70.wav,,,,,8,26,306,25,,,,,,,,,,,,,,,left,0.268321037292,,,,,participant12,23,59.8740651601,M,trial,2017_May_28_1618,
,,0.62,"[4.5, 0]",/sounds/legit/right70.wav,,,,,8,27,307,14,,,,,,,,,,,,,,,right,0.618360996246,,,,,participant12,23,59.8740651601,M,trial,2017_May_28_1618,
,,0.49,"[4.5, 0]",/sounds/legit/right70.wav,,,,,8,28,308,13,,,,,,,,,,,,,,,right,0.268620014191,,,,,participant12,23,59.8740651601,M,trial,2017_May_28_1618,
,,0.23,"[-6.75, 0]",/sounds/legit/left100.wav,,,,,8,29,309,31,,,,,,,,,,,,,,,left,0.234852075577,,,,,participant12,23,59.8740651601,M,trial,2017_May_28_1618,
,,0.49,"[-6.75, 0]",/sounds/legit/left100.wav,,,,,8,30,310,33,,,,,,,,,,,,,,,left,0.552501916885,,,,,participant12,23,59.8740651601,M,trial,2017_May_28_1618,
,,0.23,"[-4.5, 0]",/sounds/legit/left70.wav,,,,,8,31,311,26,,,,,,,,,,,,,,,left,0.0347290039062,,,,,participant12,23,59.8740651601,M,trial,2017_May_28_1618,
,,0.1,"[-6.75, 0]",/sounds/legit/left100.wav,,,,,8,32,312,30,,,,,,,,,,,,,,,left,0.017963886261,,,,,participant12,23,59.8740651601,M,trial,2017_May_28_1618,
,,0.36,"[-2.25, 0]",/sounds/legit/left35.wav,,,,,8,33,313,22,,,,,,,,,,,,,,,left,1.22037816048,,,,,participant12,23,59.8740651601,M,trial,2017_May_28_1618,
,,0.36,"[4.5, 0]",/sounds/legit/right70.wav,,,,,8,34,314,12,,,,,,,,,,,,,,,right,0.418874979019,,,,,participant12,23,59.8740651601,M,trial,2017_May_28_1618,
,,0.49,"[-2.25, 0]",/sounds/legit/left35.wav,,,,,9,0,315,23,,,,,,,,,,,,,,,left,0.268709897995,,,,,participant12,23,59.8740651601,M,trial,2017_May_28_1618,
,,0.36,"[0, 0]",/sounds/legit/equal.wav,,,,,9,1,316,2,,,,,,,,,,,,,,,left,0.23516702652,,,,,participant12,23,59.8740651601,M,trial,2017_May_28_1618,
,,0.1,"[-2.25, 0]",/sounds/legit/left35.wav,,,,,9,2,317,20,,,,,,,,,,,,,,,left,0.402007102966,,,,,participant12,23,59.8740651601,M,trial,2017_May_28_1618,
,,0.49,"[-6.75, 0]",/sounds/legit/left100.wav,,,,,9,3,318,33,,,,,,,,,,,,,,,left,0.285195827484,,,,,participant12,23,59.8740651601,M,trial,2017_May_28_1618,
,,0.1,"[4.5, 0]",/sounds/legit/right70.wav,,,,,9,4,319,10,,,,,,,,,,,,,,,right,0.18497800827,,,,,participant12,23,59.8740651601,M,trial,2017_May_28_1618,
,,0.49,"[-4.5, 0]",/sounds/legit/left70.wav,,,,,9,5,320,28,,,,,,,,,,,,,,,left,0.368775129318,,,,,participant12,23,59.8740651601,M,trial,2017_May_28_1618,
,,0.49,"[6.75, 0]",/sounds/legit/right100.wav,,,,,9,6,321,18,,,,,,,,,,,,,,,right,0.218388080597,,,,,participant12,23,59.8740651601,M,trial,2017_May_28_1618,
,,0.36,"[-4.5, 0]",/sounds/legit/left70.wav,,,,,9,7,322,27,,,,,,,,,,,,,,,left,0.135107040405,,,,,participant12,23,59.8740651601,M,trial,2017_May_28_1618,
,,0.62,"[-2.25, 0]",/sounds/legit/left35.wav,,,,,9,8,323,24,,,,,,,,,,,,,,,left,0.21848988533,,,,,participant12,23,59.8740651601,M,trial,2017_May_28_1618,
,,0.23,"[4.5, 0]",/sounds/legit/right70.wav,,,,,9,9,324,11,,,,,,,,,,,,,,,right,0.101334095001,,,,,participant12,23,59.8740651601,M,trial,2017_May_28_1618,
,,0.23,"[-6.75, 0]",/sounds/legit/left100.wav,,,,,9,10,325,31,,,,,,,,,,,,,,,left,0.318417072296,,,,,participant12,23,59.8740651601,M,trial,2017_May_28_1618,
,,0.1,"[-4.5, 0]",/sounds/legit/left70.wav,,,,,9,11,326,25,,,,,,,,,,,,,,,left,0.00126719474792,,,,,participant12,23,59.8740651601,M,trial,2017_May_28_1618,
,,0.23,"[-2.25, 0]",/sounds/legit/left35.wav,,,,,9,12,327,21,,,,,,,,,,,,,,,right,1.08700299263,,,,,participant12,23,59.8740651601,M,trial,2017_May_28_1618,
,,0.23,"[-4.5, 0]",/sounds/legit/left70.wav,,,,,9,13,328,26,,,,,,,,,,,,,,,left,0.369045972824,,,,,participant12,23,59.8740651601,M,trial,2017_May_28_1618,
,,0.1,"[0, 0]",/sounds/legit/equal.wav,,,,,9,14,329,0,,,,,,,,,,,,,,,left,2.47301387787,,,,,participant12,23,59.8740651601,M,trial,2017_May_28_1618,
,,0.62,"[0, 0]",/sounds/legit/equal.wav,,,,,9,15,330,4,,,,,,,,,,,,,,,left,0.251945972443,,,,,participant12,23,59.8740651601,M,trial,2017_May_28_1618,
,,0.62,"[-4.5, 0]",/sounds/legit/left70.wav,,,,,9,16,331,29,,,,,,,,,,,,,,,left,0.97004699707,,,,,participant12,23,59.8740651601,M,trial,2017_May_28_1618,
,,0.23,"[0, 0]",/sounds/legit/equal.wav,,,,,9,17,332,1,,,,,,,,,,,,,,,left,0.151698112488,,,,,participant12,23,59.8740651601,M,trial,2017_May_28_1618,
,,0.62,"[-6.75, 0]",/sounds/legit/left100.wav,,,,,9,18,333,34,,,,,,,,,,,,,,,left,0.235594987869,,,,,participant12,23,59.8740651601,M,trial,2017_May_28_1618,
,,0.23,"[2.25, 0]",/sounds/legit/right35.wav,,,,,9,19,334,6,,,,,,,,,,,,,,,right,0.135020971298,,,,,participant12,23,59.8740651601,M,trial,2017_May_28_1618,
,,0.49,"[2.25, 0]",/sounds/legit/right35.wav,,,,,9,20,335,8,,,,,,,,,,,,,,,right,0.0178189277649,,,,,participant12,23,59.8740651601,M,trial,2017_May_28_1618,
,,0.36,"[4.5, 0]",/sounds/legit/right70.wav,,,,,9,21,336,12,,,,,,,,,,,,,,,right,0.18491101265,,,,,participant12,23,59.8740651601,M,trial,2017_May_28_1618,
,,0.49,"[4.5, 0]",/sounds/legit/right70.wav,,,,,9,22,337,13,,,,,,,,,,,,,,,right,0.218417167664,,,,,participant12,23,59.8740651601,M,trial,2017_May_28_1618,
,,0.36,"[6.75, 0]",/sounds/legit/right100.wav,,,,,9,23,338,17,,,,,,,,,,,,,,,right,0.168453931808,,,,,participant12,23,59.8740651601,M,trial,2017_May_28_1618,
,,0.62,"[6.75, 0]",/sounds/legit/right100.wav,,,,,9,24,339,19,,,,,,,,,,,,,,,right,0.0347740650177,,,,,participant12,23,59.8740651601,M,trial,2017_May_28_1618,
,,0.36,"[2.25, 0]",/sounds/legit/right35.wav,,,,,9,25,340,7,,,,,,,,,,,,,,,right,0.886682987213,,,,,participant12,23,59.8740651601,M,trial,2017_May_28_1618,
,,0.1,"[2.25, 0]",/sounds/legit/right35.wav,,,,,9,26,341,5,,,,,,,,,,,,,,,right,1.00344896317,,,,,participant12,23,59.8740651601,M,trial,2017_May_28_1618,
,,0.36,"[-6.75, 0]",/sounds/legit/left100.wav,,,,,9,27,342,32,,,,,,,,,,,,,,,left,0.418089151382,,,,,participant12,23,59.8740651601,M,trial,2017_May_28_1618,
,,0.36,"[-2.25, 0]",/sounds/legit/left35.wav,,,,,9,28,343,22,,,,,,,,,,,,,,,left,0.76976108551,,,,,participant12,23,59.8740651601,M,trial,2017_May_28_1618,
,,0.62,"[2.25, 0]",/sounds/legit/right35.wav,,,,,9,29,344,9,,,,,,,,,,,,,,,right,0.151686906815,,,,,participant12,23,59.8740651601,M,trial,2017_May_28_1618,
,,0.1,"[6.75, 0]",/sounds/legit/right100.wav,,,,,9,30,345,15,,,,,,,,,,,,,,,right,0.185221910477,,,,,participant12,23,59.8740651601,M,trial,2017_May_28_1618,
,,0.62,"[4.5, 0]",/sounds/legit/right70.wav,,,,,9,31,346,14,,,,,,,,,,,,,,,left,0.753044128418,,,,,participant12,23,59.8740651601,M,trial,2017_May_28_1618,
,,0.49,"[0, 0]",/sounds/legit/equal.wav,,,,,9,32,347,3,,,,,,,,,,,,,,,left,0.669598817825,,,,,participant12,23,59.8740651601,M,trial,2017_May_28_1618,
,,0.1,"[-6.75, 0]",/sounds/legit/left100.wav,,,,,9,33,348,30,,,,,,,,,,,,,,,left,0.401443004608,,,,,participant12,23,59.8740651601,M,trial,2017_May_28_1618,
,,0.23,"[6.75, 0]",/sounds/legit/right100.wav,,,,,9,34,349,16,,,,,,,,,,,,,,,right,0.168293952942,,,,,participant12,23,59.8740651601,M,trial,2017_May_28_1618,
,,,,,,,,,,,,,,,,,,,,,,,,,,,,,space,14.5994949341,,,participant12,23,59.8740651601,M,trial,2017_May_28_1618,
,,0.62,"[-4.5, 0]",/sounds/legit/left70.wav,,,,,,,,,0,0,0,29,,,,,,,,,,,,,,,left,0.435383796692,participant12,23,59.8740651601,M,trial,2017_May_28_1618,
,,0.62,"[4.5, 0]",/sounds/legit/right70.wav,,,,,,,,,0,1,1,14,,,,,,,,,,,,,,,left,8.77020192146,participant12,23,59.8740651601,M,trial,2017_May_28_1618,
,,0.23,"[4.5, 0]",/sounds/legit/right70.wav,,,,,,,,,0,2,2,11,,,,,,,,,,,,,,,right,0.31879401207,participant12,23,59.8740651601,M,trial,2017_May_28_1618,
,,0.62,"[2.25, 0]",/sounds/legit/right35.wav,,,,,,,,,0,3,3,9,,,,,,,,,,,,,,,right,0.251856803894,participant12,23,59.8740651601,M,trial,2017_May_28_1618,
,,0.1,"[0, 0]",/sounds/legit/equal.wav,,,,,,,,,0,4,4,0,,,,,,,,,,,,,,,right,0.235149145126,participant12,23,59.8740651601,M,trial,2017_May_28_1618,
,,0.49,"[0, 0]",/sounds/legit/equal.wav,,,,,,,,,0,5,5,3,,,,,,,,,,,,,,,left,0.268517017365,participant12,23,59.8740651601,M,trial,2017_May_28_1618,
,,0.1,"[-6.75, 0]",/sounds/legit/left100.wav,,,,,,,,,0,6,6,30,,,,,,,,,,,,,,,left,0.235229969025,participant12,23,59.8740651601,M,trial,2017_May_28_1618,
,,0.23,"[4.5, 0]",/sounds/legit/right70.wav,,,,,,,,,0,7,7,11,,,,,,,,,,,,,,,right,0.352147817612,participant12,23,59.8740651601,M,trial,2017_May_28_1618,
,,0.1,"[-4.5, 0]",/sounds/legit/left70.wav,,,,,,,,,0,8,8,25,,,,,,,,,,,,,,,left,0.301824808121,participant12,23,59.8740651601,M,trial,2017_May_28_1618,
,,0.23,"[4.5, 0]",/sounds/legit/right70.wav,,,,,,,,,0,9,9,11,,,,,,,,,,,,,,,right,0.251519203186,participant12,23,59.8740651601,M,trial,2017_May_28_1618,
,,0.23,"[2.25, 0]",/sounds/legit/right35.wav,,,,,,,,,0,10,10,6,,,,,,,,,,,,,,,right,0.236737012863,participant12,23,59.8740651601,M,trial,2017_May_28_1618,
,,0.1,"[4.5, 0]",/sounds/legit/right70.wav,,,,,,,,,0,11,11,10,,,,,,,,,,,,,,,right,0.21847987175,participant12,23,59.8740651601,M,trial,2017_May_28_1618,
,,0.36,"[4.5, 0]",/sounds/legit/right70.wav,,,,,,,,,0,12,12,12,,,,,,,,,,,,,,,right,0.218584060669,participant12,23,59.8740651601,M,trial,2017_May_28_1618,
,,0.36,"[-6.75, 0]",/sounds/legit/left100.wav,,,,,,,,,0,13,13,32,,,,,,,,,,,,,,,left,0.28510093689,participant12,23,59.8740651601,M,trial,2017_May_28_1618,
,,0.62,"[-2.25, 0]",/sounds/legit/left35.wav,,,,,,,,,0,14,14,24,,,,,,,,,,,,,,,left,0.151782989502,participant12,23,59.8740651601,M,trial,2017_May_28_1618,
,,0.23,"[6.75, 0]",/sounds/legit/right100.wav,,,,,,,,,0,15,15,16,,,,,,,,,,,,,,,right,0.201863050461,participant12,23,59.8740651601,M,trial,2017_May_28_1618,
,,0.62,"[-4.5, 0]",/sounds/legit/left70.wav,,,,,,,,,0,16,16,29,,,,,,,,,,,,,,,left,0.184763908386,participant12,23,59.8740651601,M,trial,2017_May_28_1618,
,,0.49,"[6.75, 0]",/sounds/legit/right100.wav,,,,,,,,,0,17,17,18,,,,,,,,,,,,,,,right,0.135079145432,participant12,23,59.8740651601,M,trial,2017_May_28_1618,
,,0.1,"[-6.75, 0]",/sounds/legit/left100.wav,,,,,,,,,0,18,18,30,,,,,,,,,,,,,,,left,0.101849079132,participant12,23,59.8740651601,M,trial,2017_May_28_1618,
,,0.49,"[-2.25, 0]",/sounds/legit/left35.wav,,,,,,,,,0,19,19,23,,,,,,,,,,,,,,,left,0.15159201622,participant12,23,59.8740651601,M,trial,2017_May_28_1618,
,,0.1,"[4.5, 0]",/sounds/legit/right70.wav,,,,,,,,,0,20,20,10,,,,,,,,,,,,,,,right,0.118293046951,participant12,23,59.8740651601,M,trial,2017_May_28_1618,
,,0.49,"[-2.25, 0]",/sounds/legit/left35.wav,,,,,,,,,0,21,21,23,,,,,,,,,,,,,,,left,0.402205944061,participant12,23,59.8740651601,M,trial,2017_May_28_1618,
,,0.62,"[-4.5, 0]",/sounds/legit/left70.wav,,,,,,,,,0,22,22,29,,,,,,,,,,,,,,,left,0.101500988007,participant12,23,59.8740651601,M,trial,2017_May_28_1618,
,,0.23,"[0, 0]",/sounds/legit/equal.wav,,,,,,,,,0,23,23,1,,,,,,,,,,,,,,,right,0.134880065918,participant12,23,59.8740651601,M,trial,2017_May_28_1618,
,,0.36,"[2.25, 0]",/sounds/legit/right35.wav,,,,,,,,,0,24,24,7,,,,,,,,,,,,,,,right,0.118207931519,participant12,23,59.8740651601,M,trial,2017_May_28_1618,
,,0.49,"[6.75, 0]",/sounds/legit/right100.wav,,,,,,,,,0,25,25,18,,,,,,,,,,,,,,,right,0.0848650932312,participant12,23,59.8740651601,M,trial,2017_May_28_1618,
,,0.23,"[4.5, 0]",/sounds/legit/right70.wav,,,,,,,,,0,26,26,11,,,,,,,,,,,,,,,right,0.0513689517975,participant12,23,59.8740651601,M,trial,2017_May_28_1618,
,,0.1,"[0, 0]",/sounds/legit/equal.wav,,,,,,,,,0,27,27,0,,,,,,,,,,,,,,,right,0.0848190784454,participant12,23,59.8740651601,M,trial,2017_May_28_1618,
,,0.23,"[4.5, 0]",/sounds/legit/right70.wav,,,,,,,,,0,28,28,11,,,,,,,,,,,,,,,right,0.118091106415,participant12,23,59.8740651601,M,trial,2017_May_28_1618,
,,0.1,"[0, 0]",/sounds/legit/equal.wav,,,,,,,,,0,29,29,0,,,,,,,,,,,,,,,right,0.134757995605,participant12,23,59.8740651601,M,trial,2017_May_28_1618,
,,0.36,"[0, 0]",/sounds/legit/equal.wav,,,,,,,,,0,30,30,2,,,,,,,,,,,,,,,right,1.6213581562,participant12,23,59.8740651601,M,trial,2017_May_28_1618,
,,0.23,"[-2.25, 0]",/sounds/legit/left35.wav,,,,,,,,,0,31,31,21,,,,,,,,,,,,,,,left,0.485742807388,participant12,23,59.8740651601,M,trial,2017_May_28_1618,
,,0.62,"[-2.25, 0]",/sounds/legit/left35.wav,,,,,,,,,0,32,32,24,,,,,,,,,,,,,,,left,0.0681419372559,participant12,23,59.8740651601,M,trial,2017_May_28_1618,
,,0.23,"[0, 0]",/sounds/legit/equal.wav,,,,,,,,,0,33,33,1,,,,,,,,,,,,,,,right,0.16841006279,participant12,23,59.8740651601,M,trial,2017_May_28_1618,
,,0.23,"[-6.75, 0]",/sounds/legit/left100.wav,,,,,,,,,0,34,34,31,,,,,,,,,,,,,,,left,0.30197095871,participant12,23,59.8740651601,M,trial,2017_May_28_1618,
,,0.62,"[2.25, 0]",/sounds/legit/right35.wav,,,,,,,,,1,0,35,9,,,,,,,,,,,,,,,right,0.335335969925,participant12,23,59.8740651601,M,trial,2017_May_28_1618,
,,0.49,"[-6.75, 0]",/sounds/legit/left100.wav,,,,,,,,,1,1,36,33,,,,,,,,,,,,,,,left,0.0180740356445,participant12,23,59.8740651601,M,trial,2017_May_28_1618,
,,0.62,"[0, 0]",/sounds/legit/equal.wav,,,,,,,,,1,2,37,4,,,,,,,,,,,,,,,right,0.168338060379,participant12,23,59.8740651601,M,trial,2017_May_28_1618,
,,0.36,"[-2.25, 0]",/sounds/legit/left35.wav,,,,,,,,,1,3,38,22,,,,,,,,,,,,,,,left,0.168411016464,participant12,23,59.8740651601,M,trial,2017_May_28_1618,
,,0.23,"[-2.25, 0]",/sounds/legit/left35.wav,,,,,,,,,1,4,39,21,,,,,,,,,,,,,,,left,0.118506908417,participant12,23,59.8740651601,M,trial,2017_May_28_1618,
,,0.62,"[6.75, 0]",/sounds/legit/right100.wav,,,,,,,,,1,5,40,19,,,,,,,,,,,,,,,right,0.203052043915,participant12,23,59.8740651601,M,trial,2017_May_28_1618,
,,0.1,"[6.75, 0]",/sounds/legit/right100.wav,,,,,,,,,1,6,41,15,,,,,,,,,,,,,,,right,0.218340158463,participant12,23,59.8740651601,M,trial,2017_May_28_1618,
,,0.23,"[-4.5, 0]",/sounds/legit/left70.wav,,,,,,,,,1,7,42,26,,,,,,,,,,,,,,,left,0.0681359767914,participant12,23,59.8740651601,M,trial,2017_May_28_1618,
,,0.49,"[0, 0]",/sounds/legit/equal.wav,,,,,,,,,1,8,43,3,,,,,,,,,,,,,,,left,0.201800107956,participant12,23,59.8740651601,M,trial,2017_May_28_1618,
,,0.36,"[0, 0]",/sounds/legit/equal.wav,,,,,,,,,1,9,44,2,,,,,,,,,,,,,,,right,0.118416070938,participant12,23,59.8740651601,M,trial,2017_May_28_1618,
,,0.1,"[2.25, 0]",/sounds/legit/right35.wav,,,,,,,,,1,10,45,5,,,,,,,,,,,,,,,right,0.251667976379,participant12,23,59.8740651601,M,trial,2017_May_28_1618,
,,0.1,"[-4.5, 0]",/sounds/legit/left70.wav,,,,,,,,,1,11,46,25,,,,,,,,,,,,,,,left,0.0515260696411,participant12,23,59.8740651601,M,trial,2017_May_28_1618,
,,0.23,"[0, 0]",/sounds/legit/equal.wav,,,,,,,,,1,12,47,1,,,,,,,,,,,,,,,right,0.101538896561,participant12,23,59.8740651601,M,trial,2017_May_28_1618,
,,0.1,"[-2.25, 0]",/sounds/legit/left35.wav,,,,,,,,,1,13,48,20,,,,,,,,,,,,,,,left,0.201858043671,participant12,23,59.8740651601,M,trial,2017_May_28_1618,
,,0.23,"[-4.5, 0]",/sounds/legit/left70.wav,,,,,,,,,1,14,49,26,,,,,,,,,,,,,,,left,0.335436105728,participant12,23,59.8740651601,M,trial,2017_May_28_1618,
,,0.23,"[6.75, 0]",/sounds/legit/right100.wav,,,,,,,,,1,15,50,16,,,,,,,,,,,,,,,right,0.168294906616,participant12,23,59.8740651601,M,trial,2017_May_28_1618,
,,0.49,"[6.75, 0]",/sounds/legit/right100.wav,,,,,,,,,1,16,51,18,,,,,,,,,,,,,,,right,0.235166072845,participant12,23,59.8740651601,M,trial,2017_May_28_1618,
,,0.1,"[2.25, 0]",/sounds/legit/right35.wav,,,,,,,,,1,17,52,5,,,,,,,,,,,,,,,right,0.235105991364,participant12,23,59.8740651601,M,trial,2017_May_28_1618,
,,0.1,"[-4.5, 0]",/sounds/legit/left70.wav,,,,,,,,,1,18,53,25,,,,,,,,,,,,,,,left,0.135157108307,participant12,23,59.8740651601,M,trial,2017_May_28_1618,
,,0.49,"[4.5, 0]",/sounds/legit/right70.wav,,,,,,,,,1,19,54,13,,,,,,,,,,,,,,,right,0.0180611610413,participant12,23,59.8740651601,M,trial,2017_May_28_1618,
,,0.1,"[4.5, 0]",/sounds/legit/right70.wav,,,,,,,,,1,20,55,10,,,,,,,,,,,,,,,right,0.0346639156342,participant12,23,59.8740651601,M,trial,2017_May_28_1618,
,,0.1,"[2.25, 0]",/sounds/legit/right35.wav,,,,,,,,,1,21,56,5,,,,,,,,,,,,,,,right,0.118602991104,participant12,23,59.8740651601,M,trial,2017_May_28_1618,
,,0.1,"[-4.5, 0]",/sounds/legit/left70.wav,,,,,,,,,1,22,57,25,,,,,,,,,,,,,,,left,0.0346620082855,participant12,23,59.8740651601,M,trial,2017_May_28_1618,
,,0.36,"[-2.25, 0]",/sounds/legit/left35.wav,,,,,,,,,1,23,58,22,,,,,,,,,,,,,,,left,0.0679728984833,participant12,23,59.8740651601,M,trial,2017_May_28_1618,
,,0.36,"[-4.5, 0]",/sounds/legit/left70.wav,,,,,,,,,1,24,59,27,,,,,,,,,,,,,,,left,3.82641887665,participant12,23,59.8740651601,M,trial,2017_May_28_1618,
,,0.62,"[-4.5, 0]",/sounds/legit/left70.wav,,,,,,,,,1,25,60,29,,,,,,,,,,,,,,,left,1.17040801048,participant12,23,59.8740651601,M,trial,2017_May_28_1618,
,,0.49,"[2.25, 0]",/sounds/legit/right35.wav,,,,,,,,,1,26,61,8,,,,,,,,,,,,,,,right,0.25208902359,participant12,23,59.8740651601,M,trial,2017_May_28_1618,
,,0.36,"[0, 0]",/sounds/legit/equal.wav,,,,,,,,,1,27,62,2,,,,,,,,,,,,,,,right,0.235211133957,participant12,23,59.8740651601,M,trial,2017_May_28_1618,
,,0.36,"[-6.75, 0]",/sounds/legit/left100.wav,,,,,,,,,1,28,63,32,,,,,,,,,,,,,,,left,0.0347378253937,participant12,23,59.8740651601,M,trial,2017_May_28_1618,
,,0.62,"[4.5, 0]",/sounds/legit/right70.wav,,,,,,,,,1,29,64,14,,,,,,,,,,,,,,,right,0.519050121307,participant12,23,59.8740651601,M,trial,2017_May_28_1618,
,,0.49,"[-4.5, 0]",/sounds/legit/left70.wav,,,,,,,,,1,30,65,28,,,,,,,,,,,,,,,left,0.00134420394897,participant12,23,59.8740651601,M,trial,2017_May_28_1618,
,,0.36,"[-6.75, 0]",/sounds/legit/left100.wav,,,,,,,,,1,31,66,32,,,,,,,,,,,,,,,left,0.885665893555,participant12,23,59.8740651601,M,trial,2017_May_28_1618,
,,0.1,"[2.25, 0]",/sounds/legit/right35.wav,,,,,,,,,1,32,67,5,,,,,,,,,,,,,,,right,0.185055017471,participant12,23,59.8740651601,M,trial,2017_May_28_1618,
,,0.36,"[2.25, 0]",/sounds/legit/right35.wav,,,,,,,,,1,33,68,7,,,,,,,,,,,,,,,right,0.168566942215,participant12,23,59.8740651601,M,trial,2017_May_28_1618,
,,0.36,"[-2.25, 0]",/sounds/legit/left35.wav,,,,,,,,,1,34,69,22,,,,,,,,,,,,,,,left,0.134971857071,participant12,23,59.8740651601,M,trial,2017_May_28_1618,
,,0.49,"[4.5, 0]",/sounds/legit/right70.wav,,,,,,,,,2,0,70,13,,,,,,,,,,,,,,,right,6.8824660778,participant12,23,59.8740651601,M,trial,2017_May_28_1618,
,,0.49,"[-4.5, 0]",/sounds/legit/left70.wav,,,,,,,,,2,1,71,28,,,,,,,,,,,,,,,left,0.11820602417,participant12,23,59.8740651601,M,trial,2017_May_28_1618,
,,0.1,"[-2.25, 0]",/sounds/legit/left35.wav,,,,,,,,,2,2,72,20,,,,,,,,,,,,,,,left,0.101447105408,participant12,23,59.8740651601,M,trial,2017_May_28_1618,
,,0.49,"[2.25, 0]",/sounds/legit/right35.wav,,,,,,,,,2,3,73,8,,,,,,,,,,,,,,,right,0.0849499702454,participant12,23,59.8740651601,M,trial,2017_May_28_1618,
,,0.36,"[6.75, 0]",/sounds/legit/right100.wav,,,,,,,,,2,4,74,17,,,,,,,,,,,,,,,right,0.101395130157,participant12,23,59.8740651601,M,trial,2017_May_28_1618,
,,0.49,"[2.25, 0]",/sounds/legit/right35.wav,,,,,,,,,2,5,75,8,,,,,,,,,,,,,,,right,0.252156972885,participant12,23,59.8740651601,M,trial,2017_May_28_1618,
,,0.23,"[4.5, 0]",/sounds/legit/right70.wav,,,,,,,,,2,6,76,11,,,,,,,,,,,,,,,right,0.084743976593,participant12,23,59.8740651601,M,trial,2017_May_28_1618,
,,0.49,"[0, 0]",/sounds/legit/equal.wav,,,,,,,,,2,7,77,3,,,,,,,,,,,,,,,right,0.101384878159,participant12,23,59.8740651601,M,trial,2017_May_28_1618,
,,0.36,"[4.5, 0]",/sounds/legit/right70.wav,,,,,,,,,2,8,78,12,,,,,,,,,,,,,,,right,0.0851261615753,participant12,23,59.8740651601,M,trial,2017_May_28_1618,
,,0.36,"[2.25, 0]",/sounds/legit/right35.wav,,,,,,,,,2,9,79,7,,,,,,,,,,,,,,,right,0.0849487781525,participant12,23,59.8740651601,M,trial,2017_May_28_1618,
,,0.62,"[0, 0]",/sounds/legit/equal.wav,,,,,,,,,2,10,80,4,,,,,,,,,,,,,,,right,1.07041716576,participant12,23,59.8740651601,M,trial,2017_May_28_1618,
,,0.1,"[0, 0]",/sounds/legit/equal.wav,,,,,,,,,2,11,81,0,,,,,,,,,,,,,,,right,0.25185585022,participant12,23,59.8740651601,M,trial,2017_May_28_1618,
,,0.1,"[4.5, 0]",/sounds/legit/right70.wav,,,,,,,,,2,12,82,10,,,,,,,,,,,,,,,right,0.0848360061646,participant12,23,59.8740651601,M,trial,2017_May_28_1618,
,,0.49,"[6.75, 0]",/sounds/legit/right100.wav,,,,,,,,,2,13,83,18,,,,,,,,,,,,,,,right,0.185127973557,participant12,23,59.8740651601,M,trial,2017_May_28_1618,
,,0.23,"[-4.5, 0]",/sounds/legit/left70.wav,,,,,,,,,2,14,84,26,,,,,,,,,,,,,,,left,0.169023990631,participant12,23,59.8740651601,M,trial,2017_May_28_1618,
,,0.36,"[4.5, 0]",/sounds/legit/right70.wav,,,,,,,,,2,15,85,12,,,,,,,,,,,,,,,right,0.118206977844,participant12,23,59.8740651601,M,trial,2017_May_28_1618,
,,0.49,"[2.25, 0]",/sounds/legit/right35.wav,,,,,,,,,2,16,86,8,,,,,,,,,,,,,,,right,11.2417721748,participant12,23,59.8740651601,M,trial,2017_May_28_1618,
,,0.23,"[0, 0]",/sounds/legit/equal.wav,,,,,,,,,2,17,87,1,,,,,,,,,,,,,,,right,0.151870965958,participant12,23,59.8740651601,M,trial,2017_May_28_1618,
,,0.1,"[-6.75, 0]",/sounds/legit/left100.wav,,,,,,,,,2,18,88,30,,,,,,,,,,,,,,,left,0.0512788295746,participant12,23,59.8740651601,M,trial,2017_May_28_1618,
,,0.23,"[-6.75, 0]",/sounds/legit/left100.wav,,,,,,,,,2,19,89,31,,,,,,,,,,,,,,,left,0.118156909943,participant12,23,59.8740651601,M,trial,2017_May_28_1618,
,,0.23,"[4.5, 0]",/sounds/legit/right70.wav,,,,,,,,,2,20,90,11,,,,,,,,,,,,,,,right,0.101561069489,participant12,23,59.8740651601,M,trial,2017_May_28_1618,
,,0.62,"[2.25, 0]",/sounds/legit/right35.wav,,,,,,,,,2,21,91,9,,,,,,,,,,,,,,,left,0.202114105225,participant12,23,59.8740651601,M,trial,2017_May_28_1618,
,,0.23,"[-2.25, 0]",/sounds/legit/left35.wav,,,,,,,,,2,22,92,21,,,,,,,,,,,,,,,left,0.0846412181854,participant12,23,59.8740651601,M,trial,2017_May_28_1618,
,,0.49,"[4.5, 0]",/sounds/legit/right70.wav,,,,,,,,,2,23,93,13,,,,,,,,,,,,,,,right,0.185237884521,participant12,23,59.8740651601,M,trial,2017_May_28_1618,
,,0.1,"[-4.5, 0]",/sounds/legit/left70.wav,,,,,,,,,2,24,94,25,,,,,,,,,,,,,,,left,0.21831703186,participant12,23,59.8740651601,M,trial,2017_May_28_1618,
,,0.62,"[-6.75, 0]",/sounds/legit/left100.wav,,,,,,,,,2,25,95,34,,,,,,,,,,,,,,,left,0.201711893082,participant12,23,59.8740651601,M,trial,2017_May_28_1618,
,,0.36,"[6.75, 0]",/sounds/legit/right100.wav,,,,,,,,,2,26,96,17,,,,,,,,,,,,,,,right,0.185117959976,participant12,23,59.8740651601,M,trial,2017_May_28_1618,
,,0.62,"[6.75, 0]",/sounds/legit/right100.wav,,,,,,,,,2,27,97,19,,,,,,,,,,,,,,,right,0.168672084808,participant12,23,59.8740651601,M,trial,2017_May_28_1618,
,,0.1,"[-4.5, 0]",/sounds/legit/left70.wav,,,,,,,,,2,28,98,25,,,,,,,,,,,,,,,left,0.201827049255,participant12,23,59.8740651601,M,trial,2017_May_28_1618,
,,0.23,"[6.75, 0]",/sounds/legit/right100.wav,,,,,,,,,2,29,99,16,,,,,,,,,,,,,,,right,0.151785135269,participant12,23,59.8740651601,M,trial,2017_May_28_1618,
,,0.62,"[-6.75, 0]",/sounds/legit/left100.wav,,,,,,,,,2,30,100,34,,,,,,,,,,,,,,,left,0.101484060287,participant12,23,59.8740651601,M,trial,2017_May_28_1618,
,,0.23,"[2.25, 0]",/sounds/legit/right35.wav,,,,,,,,,2,31,101,6,,,,,,,,,,,,,,,right,0.168505191803,participant12,23,59.8740651601,M,trial,2017_May_28_1618,
,,0.1,"[-2.25, 0]",/sounds/legit/left35.wav,,,,,,,,,2,32,102,20,,,,,,,,,,,,,,,left,0.168320178986,participant12,23,59.8740651601,M,trial,2017_May_28_1618,
,,0.49,"[6.75, 0]",/sounds/legit/right100.wav,,,,,,,,,2,33,103,18,,,,,,,,,,,,,,,right,0.0519449710846,participant12,23,59.8740651601,M,trial,2017_May_28_1618,
,,0.1,"[6.75, 0]",/sounds/legit/right100.wav,,,,,,,,,2,34,104,15,,,,,,,,,,,,,,,right,0.118485927582,participant12,23,59.8740651601,M,trial,2017_May_28_1618,
,,0.36,"[-4.5, 0]",/sounds/legit/left70.wav,,,,,,,,,3,0,105,27,,,,,,,,,,,,,,,left,0.0345821380615,participant12,23,59.8740651601,M,trial,2017_May_28_1618,
,,0.62,"[0, 0]",/sounds/legit/equal.wav,,,,,,,,,3,1,106,4,,,,,,,,,,,,,,,right,0.485587120056,participant12,23,59.8740651601,M,trial,2017_May_28_1618,
,,0.23,"[-6.75, 0]",/sounds/legit/left100.wav,,,,,,,,,3,2,107,31,,,,,,,,,,,,,,,left,0.0513780117035,participant12,23,59.8740651601,M,trial,2017_May_28_1618,
,,0.23,"[-4.5, 0]",/sounds/legit/left70.wav,,,,,,,,,3,3,108,26,,,,,,,,,,,,,,,left,0.084657907486,participant12,23,59.8740651601,M,trial,2017_May_28_1618,
,,0.23,"[6.75, 0]",/sounds/legit/right100.wav,,,,,,,,,3,4,109,16,,,,,,,,,,,,,,,right,0.0182409286499,participant12,23,59.8740651601,M,trial,2017_May_28_1618,
,,0.23,"[0, 0]",/sounds/legit/equal.wav,,,,,,,,,3,5,110,1,,,,,,,,,,,,,,,right,0.518963813782,participant12,23,59.8740651601,M,trial,2017_May_28_1618,
,,0.36,"[6.75, 0]",/sounds/legit/right100.wav,,,,,,,,,3,6,111,17,,,,,,,,,,,,,,,right,0.0514409542084,participant12,23,59.8740651601,M,trial,2017_May_28_1618,
,,0.23,"[-6.75, 0]",/sounds/legit/left100.wav,,,,,,,,,3,7,112,31,,,,,,,,,,,,,,,left,0.636025905609,participant12,23,59.8740651601,M,trial,2017_May_28_1618,
,,0.23,"[0, 0]",/sounds/legit/equal.wav,,,,,,,,,3,8,113,1,,,,,,,,,,,,,,,right,0.435286998749,participant12,23,59.8740651601,M,trial,2017_May_28_1618,
,,0.49,"[2.25, 0]",/sounds/legit/right35.wav,,,,,,,,,3,9,114,8,,,,,,,,,,,,,,,right,0.0846309661865,participant12,23,59.8740651601,M,trial,2017_May_28_1618,
,,0.62,"[6.75, 0]",/sounds/legit/right100.wav,,,,,,,,,3,10,115,19,,,,,,,,,,,,,,,right,0.184844970703,participant12,23,59.8740651601,M,trial,2017_May_28_1618,
,,0.36,"[4.5, 0]",/sounds/legit/right70.wav,,,,,,,,,3,11,116,12,,,,,,,,,,,,,,,right,0.218034029007,participant12,23,59.8740651601,M,trial,2017_May_28_1618,
,,0.36,"[4.5, 0]",/sounds/legit/right70.wav,,,,,,,,,3,12,117,12,,,,,,,,,,,,,,,right,0.201592206955,participant12,23,59.8740651601,M,trial,2017_May_28_1618,
,,0.36,"[0, 0]",/sounds/legit/equal.wav,,,,,,,,,3,13,118,2,,,,,,,,,,,,,,,right,0.169231891632,participant12,23,59.8740651601,M,trial,2017_May_28_1618,
,,0.36,"[-4.5, 0]",/sounds/legit/left70.wav,,,,,,,,,3,14,119,27,,,,,,,,,,,,,,,left,0.101557970047,participant12,23,59.8740651601,M,trial,2017_May_28_1618,
,,0.23,"[2.25, 0]",/sounds/legit/right35.wav,,,,,,,,,3,15,120,6,,,,,,,,,,,,,,,right,0.151679992676,participant12,23,59.8740651601,M,trial,2017_May_28_1618,
,,0.49,"[4.5, 0]",/sounds/legit/right70.wav,,,,,,,,,3,16,121,13,,,,,,,,,,,,,,,right,0.0345370769501,participant12,23,59.8740651601,M,trial,2017_May_28_1618,
,,0.23,"[-6.75, 0]",/sounds/legit/left100.wav,,,,,,,,,3,17,122,31,,,,,,,,,,,,,,,left,0.0847158432007,participant12,23,59.8740651601,M,trial,2017_May_28_1618,
,,0.62,"[2.25, 0]",/sounds/legit/right35.wav,,,,,,,,,3,18,123,9,,,,,,,,,,,,,,,right,0.0680651664734,participant12,23,59.8740651601,M,trial,2017_May_28_1618,
,,0.23,"[2.25, 0]",/sounds/legit/right35.wav,,,,,,,,,3,19,124,6,,,,,,,,,,,,,,,right,0.0846939086914,participant12,23,59.8740651601,M,trial,2017_May_28_1618,
,,0.62,"[-4.5, 0]",/sounds/legit/left70.wav,,,,,,,,,3,20,125,29,,,,,,,,,,,,,,,left,0.452387094498,participant12,23,59.8740651601,M,trial,2017_May_28_1618,
,,0.23,"[-4.5, 0]",/sounds/legit/left70.wav,,,,,,,,,3,21,126,26,,,,,,,,,,,,,,,left,0.0848159790039,participant12,23,59.8740651601,M,trial,2017_May_28_1618,
,,0.36,"[2.25, 0]",/sounds/legit/right35.wav,,,,,,,,,3,22,127,7,,,,,,,,,,,,,,,right,0.536005973816,participant12,23,59.8740651601,M,trial,2017_May_28_1618,
,,0.23,"[-2.25, 0]",/sounds/legit/left35.wav,,,,,,,,,3,23,128,21,,,,,,,,,,,,,,,left,0.0343611240387,participant12,23,59.8740651601,M,trial,2017_May_28_1618,
,,0.23,"[2.25, 0]",/sounds/legit/right35.wav,,,,,,,,,3,24,129,6,,,,,,,,,,,,,,,right,0.134851932526,participant12,23,59.8740651601,M,trial,2017_May_28_1618,
,,0.62,"[-2.25, 0]",/sounds/legit/left35.wav,,,,,,,,,3,25,130,24,,,,,,,,,,,,,,,left,0.0851287841797,participant12,23,59.8740651601,M,trial,2017_May_28_1618,
,,0.62,"[0, 0]",/sounds/legit/equal.wav,,,,,,,,,3,26,131,4,,,,,,,,,,,,,,,right,0.619288921356,participant12,23,59.8740651601,M,trial,2017_May_28_1618,
,,0.36,"[-2.25, 0]",/sounds/legit/left35.wav,,,,,,,,,3,27,132,22,,,,,,,,,,,,,,,left,0.151657104492,participant12,23,59.8740651601,M,trial,2017_May_28_1618,
,,0.1,"[-6.75, 0]",/sounds/legit/left100.wav,,,,,,,,,3,28,133,30,,,,,,,,,,,,,,,left,0.0346148014069,participant12,23,59.8740651601,M,trial,2017_May_28_1618,
,,0.49,"[6.75, 0]",/sounds/legit/right100.wav,,,,,,,,,3,29,134,18,,,,,,,,,,,,,,,right,0.0512759685516,participant12,23,59.8740651601,M,trial,2017_May_28_1618,
,,0.62,"[2.25, 0]",/sounds/legit/right35.wav,,,,,,,,,3,30,135,9,,,,,,,,,,,,,,,right,0.035630941391,participant12,23,59.8740651601,M,trial,2017_May_28_1618,
,,0.62,"[0, 0]",/sounds/legit/equal.wav,,,,,,,,,3,31,136,4,,,,,,,,,,,,,,,right,0.135082006454,participant12,23,59.8740651601,M,trial,2017_May_28_1618,
,,0.49,"[-4.5, 0]",/sounds/legit/left70.wav,,,,,,,,,3,32,137,28,,,,,,,,,,,,,,,left,0.0848197937012,participant12,23,59.8740651601,M,trial,2017_May_28_1618,
,,0.23,"[0, 0]",/sounds/legit/equal.wav,,,,,,,,,3,33,138,1,,,,,,,,,,,,,,,right,0.0848059654236,participant12,23,59.8740651601,M,trial,2017_May_28_1618,
,,0.49,"[-6.75, 0]",/sounds/legit/left100.wav,,,,,,,,,3,34,139,33,,,,,,,,,,,,,,,left,0.569373130798,participant12,23,59.8740651601,M,trial,2017_May_28_1618,
,,0.49,"[4.5, 0]",/sounds/legit/right70.wav,,,,,,,,,4,0,140,13,,,,,,,,,,,,,,,right,0.0683159828186,participant12,23,59.8740651601,M,trial,2017_May_28_1618,
,,0.49,"[-4.5, 0]",/sounds/legit/left70.wav,,,,,,,,,4,1,141,28,,,,,,,,,,,,,,,left,0.118350982666,participant12,23,59.8740651601,M,trial,2017_May_28_1618,
,,0.36,"[4.5, 0]",/sounds/legit/right70.wav,,,,,,,,,4,2,142,12,,,,,,,,,,,,,,,right,0.0345809459686,participant12,23,59.8740651601,M,trial,2017_May_28_1618,
,,0.62,"[-4.5, 0]",/sounds/legit/left70.wav,,,,,,,,,4,3,143,29,,,,,,,,,,,,,,,left,0.08469414711,participant12,23,59.8740651601,M,trial,2017_May_28_1618,
,,0.36,"[-2.25, 0]",/sounds/legit/left35.wav,,,,,,,,,4,4,144,22,,,,,,,,,,,,,,,left,0.0848920345306,participant12,23,59.8740651601,M,trial,2017_May_28_1618,
,,0.36,"[-4.5, 0]",/sounds/legit/left70.wav,,,,,,,,,4,5,145,27,,,,,,,,,,,,,,,left,0.084997177124,participant12,23,59.8740651601,M,trial,2017_May_28_1618,
,,0.36,"[6.75, 0]",/sounds/legit/right100.wav,,,,,,,,,4,6,146,17,,,,,,,,,,,,,,,right,0.0681238174438,participant12,23,59.8740651601,M,trial,2017_May_28_1618,
,,0.62,"[4.5, 0]",/sounds/legit/right70.wav,,,,,,,,,4,7,147,14,,,,,,,,,,,,,,,right,0.150717973709,participant12,23,59.8740651601,M,trial,2017_May_28_1618,
,,0.36,"[0, 0]",/sounds/legit/equal.wav,,,,,,,,,4,8,148,2,,,,,,,,,,,,,,,right,0.134179115295,participant12,23,59.8740651601,M,trial,2017_May_28_1618,
,,0.49,"[-2.25, 0]",/sounds/legit/left35.wav,,,,,,,,,4,9,149,23,,,,,,,,,,,,,,,left,0.118148088455,participant12,23,59.8740651601,M,trial,2017_May_28_1618,
,,0.62,"[4.5, 0]",/sounds/legit/right70.wav,,,,,,,,,4,10,150,14,,,,,,,,,,,,,,,right,0.0360629558563,participant12,23,59.8740651601,M,trial,2017_May_28_1618,
,,0.49,"[-4.5, 0]",/sounds/legit/left70.wav,,,,,,,,,4,11,151,28,,,,,,,,,,,,,,,left,0.084771156311,participant12,23,59.8740651601,M,trial,2017_May_28_1618,
,,0.49,"[-2.25, 0]",/sounds/legit/left35.wav,,,,,,,,,4,12,152,23,,,,,,,,,,,,,,,left,0.151417970657,participant12,23,59.8740651601,M,trial,2017_May_28_1618,
,,0.23,"[4.5, 0]",/sounds/legit/right70.wav,,,,,,,,,4,13,153,11,,,,,,,,,,,,,,,right,0.0678799152374,participant12,23,59.8740651601,M,trial,2017_May_28_1618,
,,0.36,"[4.5, 0]",/sounds/legit/right70.wav,,,,,,,,,4,14,154,12,,,,,,,,,,,,,,,right,0.0681259632111,participant12,23,59.8740651601,M,trial,2017_May_28_1618,
,,0.36,"[6.75, 0]",/sounds/legit/right100.wav,,,,,,,,,4,15,155,17,,,,,,,,,,,,,,,right,0.0839920043945,participant12,23,59.8740651601,M,trial,2017_May_28_1618,
,,0.62,"[-6.75, 0]",/sounds/legit/left100.wav,,,,,,,,,4,16,156,34,,,,,,,,,,,,,,,left,0.135087013245,participant12,23,59.8740651601,M,trial,2017_May_28_1618,
,,0.23,"[-2.25, 0]",/sounds/legit/left35.wav,,,,,,,,,4,17,157,21,,,,,,,,,,,,,,,left,0.0345728397369,participant12,23,59.8740651601,M,trial,2017_May_28_1618,
,,0.23,"[6.75, 0]",/sounds/legit/right100.wav,,,,,,,,,4,18,158,16,,,,,,,,,,,,,,,right,0.0181789398193,participant12,23,59.8740651601,M,trial,2017_May_28_1618,
,,0.1,"[0, 0]",/sounds/legit/equal.wav,,,,,,,,,4,19,159,0,,,,,,,,,,,,,,,right,0.0347969532013,participant12,23,59.8740651601,M,trial,2017_May_28_1618,
,,0.36,"[6.75, 0]",/sounds/legit/right100.wav,,,,,,,,,4,20,160,17,,,,,,,,,,,,,,,right,0.0681011676788,participant12,23,59.8740651601,M,trial,2017_May_28_1618,
,,0.1,"[0, 0]",/sounds/legit/equal.wav,,,,,,,,,4,21,161,0,,,,,,,,,,,,,,,right,0.0518140792847,participant12,23,59.8740651601,M,trial,2017_May_28_1618,
,,0.1,"[0, 0]",/sounds/legit/equal.wav,,,,,,,,,4,22,162,0,,,,,,,,,,,,,,,right,0.0179390907288,participant12,23,59.8740651601,M,trial,2017_May_28_1618,
,,0.49,"[6.75, 0]",/sounds/legit/right100.wav,,,,,,,,,4,23,163,18,,,,,,,,,,,,,,,right,0.0179350376129,participant12,23,59.8740651601,M,trial,2017_May_28_1618,
,,0.1,"[4.5, 0]",/sounds/legit/right70.wav,,,,,,,,,4,24,164,10,,,,,,,,,,,,,,,right,0.068176984787,participant12,23,59.8740651601,M,trial,2017_May_28_1618,
,,0.36,"[-6.75, 0]",/sounds/legit/left100.wav,,,,,,,,,4,25,165,32,,,,,,,,,,,,,,,left,0.0169970989227,participant12,23,59.8740651601,M,trial,2017_May_28_1618,
,,0.23,"[0, 0]",/sounds/legit/equal.wav,,,,,,,,,4,26,166,1,,,,,,,,,,,,,,,right,0.0179541110992,participant12,23,59.8740651601,M,trial,2017_May_28_1618,
,,0.23,"[-4.5, 0]",/sounds/legit/left70.wav,,,,,,,,,4,27,167,26,,,,,,,,,,,,,,,left,0.0348870754242,participant12,23,59.8740651601,M,trial,2017_May_28_1618,
,,0.23,"[-2.25, 0]",/sounds/legit/left35.wav,,,,,,,,,4,28,168,21,,,,,,,,,,,,,,,left,0.0013267993927,participant12,23,59.8740651601,M,trial,2017_May_28_1618,
,,0.62,"[-4.5, 0]",/sounds/legit/left70.wav,,,,,,,,,4,29,169,29,,,,,,,,,,,,,,,left,0.2184278965,participant12,23,59.8740651601,M,trial,2017_May_28_1618,
,,0.36,"[-4.5, 0]",/sounds/legit/left70.wav,,,,,,,,,4,30,170,27,,,,,,,,,,,,,,,left,0.0177710056305,participant12,23,59.8740651601,M,trial,2017_May_28_1618,
,,0.36,"[4.5, 0]",/sounds/legit/right70.wav,,,,,,,,,4,31,171,12,,,,,,,,,,,,,,,right,0.118273019791,participant12,23,59.8740651601,M,trial,2017_May_28_1618,
,,0.1,"[-4.5, 0]",/sounds/legit/left70.wav,,,,,,,,,4,32,172,25,,,,,,,,,,,,,,,left,0.0171751976013,participant12,23,59.8740651601,M,trial,2017_May_28_1618,
,,0.1,"[-4.5, 0]",/sounds/legit/left70.wav,,,,,,,,,4,33,173,25,,,,,,,,,,,,,,,left,0.0012481212616,participant12,23,59.8740651601,M,trial,2017_May_28_1618,
,,0.36,"[-2.25, 0]",/sounds/legit/left35.wav,,,,,,,,,4,34,174,22,,,,,,,,,,,,,,,left,0.535545110703,participant12,23,59.8740651601,M,trial,2017_May_28_1618,
,,0.36,"[0, 0]",/sounds/legit/equal.wav,,,,,,,,,5,0,175,2,,,,,,,,,,,,,,,right,0.0345859527588,participant12,23,59.8740651601,M,trial,2017_May_28_1618,
,,0.1,"[2.25, 0]",/sounds/legit/right35.wav,,,,,,,,,5,1,176,5,,,,,,,,,,,,,,,right,0.051549911499,participant12,23,59.8740651601,M,trial,2017_May_28_1618,
,,0.36,"[2.25, 0]",/sounds/legit/right35.wav,,,,,,,,,5,2,177,7,,,,,,,,,,,,,,,right,0.0347461700439,participant12,23,59.8740651601,M,trial,2017_May_28_1618,
,,0.36,"[2.25, 0]",/sounds/legit/right35.wav,,,,,,,,,5,3,178,7,,,,,,,,,,,,,,,right,0.585772037506,participant12,23,59.8740651601,M,trial,2017_May_28_1618,
,,0.1,"[6.75, 0]",/sounds/legit/right100.wav,,,,,,,,,5,4,179,15,,,,,,,,,,,,,,,right,0.117392063141,participant12,23,59.8740651601,M,trial,2017_May_28_1618,
,,0.62,"[4.5, 0]",/sounds/legit/right70.wav,,,,,,,,,5,5,180,14,,,,,,,,,,,,,,,right,0.251829147339,participant12,23,59.8740651601,M,trial,2017_May_28_1618,
,,0.1,"[-4.5, 0]",/sounds/legit/left70.wav,,,,,,,,,5,6,181,25,,,,,,,,,,,,,,,left,0.0680429935455,participant12,23,59.8740651601,M,trial,2017_May_28_1618,
,,0.23,"[-6.75, 0]",/sounds/legit/left100.wav,,,,,,,,,5,7,182,31,,,,,,,,,,,,,,,left,7.68434500694,participant12,23,59.8740651601,M,trial,2017_May_28_1618,
,,0.62,"[2.25, 0]",/sounds/legit/right35.wav,,,,,,,,,5,8,183,9,,,,,,,,,,,,,,,right,0.00143098831177,participant12,23,59.8740651601,M,trial,2017_May_28_1618,
,,0.36,"[2.25, 0]",/sounds/legit/right35.wav,,,,,,,,,5,9,184,7,,,,,,,,,,,,,,,right,0.101771831512,participant12,23,59.8740651601,M,trial,2017_May_28_1618,
,,0.23,"[-2.25, 0]",/sounds/legit/left35.wav,,,,,,,,,5,10,185,21,,,,,,,,,,,,,,,left,0.535808086395,participant12,23,59.8740651601,M,trial,2017_May_28_1618,
,,0.49,"[-2.25, 0]",/sounds/legit/left35.wav,,,,,,,,,5,11,186,23,,,,,,,,,,,,,,,right,0.0847990512848,participant12,23,59.8740651601,M,trial,2017_May_28_1618,
,,0.62,"[-6.75, 0]",/sounds/legit/left100.wav,,,,,,,,,5,12,187,34,,,,,,,,,,,,,,,left,4.24492287636,participant12,23,59.8740651601,M,trial,2017_May_28_1618,
,,0.49,"[-4.5, 0]",/sounds/legit/left70.wav,,,,,,,,,5,13,188,28,,,,,,,,,,,,,,,left,0.620188951492,participant12,23,59.8740651601,M,trial,2017_May_28_1618,
,,0.49,"[6.75, 0]",/sounds/legit/right100.wav,,,,,,,,,5,14,189,18,,,,,,,,,,,,,,,right,1.03689694405,participant12,23,59.8740651601,M,trial,2017_May_28_1618,
,,0.1,"[2.25, 0]",/sounds/legit/right35.wav,,,,,,,,,5,15,190,5,,,,,,,,,,,,,,,right,0.0681109428406,participant12,23,59.8740651601,M,trial,2017_May_28_1618,
,,0.62,"[2.25, 0]",/sounds/legit/right35.wav,,,,,,,,,5,16,191,9,,,,,,,,,,,,,,,right,0.0515229701996,participant12,23,59.8740651601,M,trial,2017_May_28_1618,
,,0.1,"[4.5, 0]",/sounds/legit/right70.wav,,,,,,,,,5,17,192,10,,,,,,,,,,,,,,,right,0.0529930591583,participant12,23,59.8740651601,M,trial,2017_May_28_1618,
,,0.49,"[0, 0]",/sounds/legit/equal.wav,,,,,,,,,5,18,193,3,,,,,,,,,,,,,,,right,0.101491212845,participant12,23,59.8740651601,M,trial,2017_May_28_1618,
,,0.62,"[6.75, 0]",/sounds/legit/right100.wav,,,,,,,,,5,19,194,19,,,,,,,,,,,,,,,right,0.101539850235,participant12,23,59.8740651601,M,trial,2017_May_28_1618,
,,0.36,"[-4.5, 0]",/sounds/legit/left70.wav,,,,,,,,,5,20,195,27,,,,,,,,,,,,,,,left,0.168213844299,participant12,23,59.8740651601,M,trial,2017_May_28_1618,
,,0.49,"[4.5, 0]",/sounds/legit/right70.wav,,,,,,,,,5,21,196,13,,,,,,,,,,,,,,,right,0.0513570308685,participant12,23,59.8740651601,M,trial,2017_May_28_1618,
,,0.36,"[-2.25, 0]",/sounds/legit/left35.wav,,,,,,,,,5,22,197,22,,,,,,,,,,,,,,,left,0.134830951691,participant12,23,59.8740651601,M,trial,2017_May_28_1618,
,,0.36,"[0, 0]",/sounds/legit/equal.wav,,,,,,,,,5,23,198,2,,,,,,,,,,,,,,,right,0.302024126053,participant12,23,59.8740651601,M,trial,2017_May_28_1618,
,,0.1,"[2.25, 0]",/sounds/legit/right35.wav,,,,,,,,,5,24,199,5,,,,,,,,,,,,,,,right,0.0345959663391,participant12,23,59.8740651601,M,trial,2017_May_28_1618,
,,0.1,"[4.5, 0]",/sounds/legit/right70.wav,,,,,,,,,5,25,200,10,,,,,,,,,,,,,,,right,0.302299976349,participant12,23,59.8740651601,M,trial,2017_May_28_1618,
,,0.1,"[6.75, 0]",/sounds/legit/right100.wav,,,,,,,,,5,26,201,15,,,,,,,,,,,,,,,right,0.201800107956,participant12,23,59.8740651601,M,trial,2017_May_28_1618,
,,0.62,"[0, 0]",/sounds/legit/equal.wav,,,,,,,,,5,27,202,4,,,,,,,,,,,,,,,right,0.78560590744,participant12,23,59.8740651601,M,trial,2017_May_28_1618,
,,0.36,"[-6.75, 0]",/sounds/legit/left100.wav,,,,,,,,,5,28,203,32,,,,,,,,,,,,,,,left,5.68007493019,participant12,23,59.8740651601,M,trial,2017_May_28_1618,
,,0.1,"[0, 0]",/sounds/legit/equal.wav,,,,,,,,,5,29,204,0,,,,,,,,,,,,,,,right,14.6827030182,participant12,23,59.8740651601,M,trial,2017_May_28_1618,
,,0.1,"[-4.5, 0]",/sounds/legit/left70.wav,,,,,,,,,5,30,205,25,,,,,,,,,,,,,,,left,20.2277219296,participant12,23,59.8740651601,M,trial,2017_May_28_1618,
,,0.49,"[-4.5, 0]",/sounds/legit/left70.wav,,,,,,,,,5,31,206,28,,,,,,,,,,,,,,,left,23.3345339298,participant12,23,59.8740651601,M,trial,2017_May_28_1618,
,,0.36,"[6.75, 0]",/sounds/legit/right100.wav,,,,,,,,,5,32,207,17,,,,,,,,,,,,,,,right,0.185483932495,participant12,23,59.8740651601,M,trial,2017_May_28_1618,
,,0.36,"[0, 0]",/sounds/legit/equal.wav,,,,,,,,,5,33,208,2,,,,,,,,,,,,,,,right,0.118083953857,participant12,23,59.8740651601,M,trial,2017_May_28_1618,
,,0.62,"[0, 0]",/sounds/legit/equal.wav,,,,,,,,,5,34,209,4,,,,,,,,,,,,,,,right,4.66032910347,participant12,23,59.8740651601,M,trial,2017_May_28_1618,
,,0.36,"[2.25, 0]",/sounds/legit/right35.wav,,,,,,,,,6,0,210,7,,,,,,,,,,,,,,,right,0.135143041611,participant12,23,59.8740651601,M,trial,2017_May_28_1618,
,,0.62,"[-6.75, 0]",/sounds/legit/left100.wav,,,,,,,,,6,1,211,34,,,,,,,,,,,,,,,left,0.619420051575,participant12,23,59.8740651601,M,trial,2017_May_28_1618,
,,0.36,"[-6.75, 0]",/sounds/legit/left100.wav,,,,,,,,,6,2,212,32,,,,,,,,,,,,,,,left,0.0514528751373,participant12,23,59.8740651601,M,trial,2017_May_28_1618,
,,0.36,"[-2.25, 0]",/sounds/legit/left35.wav,,,,,,,,,6,3,213,22,,,,,,,,,,,,,,,left,1.22094798088,participant12,23,59.8740651601,M,trial,2017_May_28_1618,
,,0.62,"[6.75, 0]",/sounds/legit/right100.wav,,,,,,,,,6,4,214,19,,,,,,,,,,,,,,,right,0.435596942902,participant12,23,59.8740651601,M,trial,2017_May_28_1618,
,,0.62,"[0, 0]",/sounds/legit/equal.wav,,,,,,,,,6,5,215,4,,,,,,,,,,,,,,,right,0.469187021255,participant12,23,59.8740651601,M,trial,2017_May_28_1618,
,,0.23,"[2.25, 0]",/sounds/legit/right35.wav,,,,,,,,,6,6,216,6,,,,,,,,,,,,,,,right,18.4238049984,participant12,23,59.8740651601,M,trial,2017_May_28_1618,
,,0.62,"[-4.5, 0]",/sounds/legit/left70.wav,,,,,,,,,6,7,217,29,,,,,,,,,,,,,,,left,0.0344319343567,participant12,23,59.8740651601,M,trial,2017_May_28_1618,
,,0.23,"[-4.5, 0]",/sounds/legit/left70.wav,,,,,,,,,6,8,218,26,,,,,,,,,,,,,,,left,0.0848791599274,participant12,23,59.8740651601,M,trial,2017_May_28_1618,
,,0.1,"[4.5, 0]",/sounds/legit/right70.wav,,,,,,,,,6,9,219,10,,,,,,,,,,,,,,,right,0.0516011714935,participant12,23,59.8740651601,M,trial,2017_May_28_1618,
,,0.49,"[2.25, 0]",/sounds/legit/right35.wav,,,,,,,,,6,10,220,8,,,,,,,,,,,,,,,right,0.118252038956,participant12,23,59.8740651601,M,trial,2017_May_28_1618,
,,0.36,"[6.75, 0]",/sounds/legit/right100.wav,,,,,,,,,6,11,221,17,,,,,,,,,,,,,,,right,0.018002986908,participant12,23,59.8740651601,M,trial,2017_May_28_1618,
,,0.23,"[-6.75, 0]",/sounds/legit/left100.wav,,,,,,,,,6,12,222,31,,,,,,,,,,,,,,,left,0.0681591033936,participant12,23,59.8740651601,M,trial,2017_May_28_1618,
