path,name,noise,location,correspondingAudio,audiotrials.thisRepN,audiotrials.thisTrialN,audiotrials.thisN,audiotrials.thisIndex,visualTrials.thisRepN,visualTrials.thisTrialN,visualTrials.thisN,visualTrials.thisIndex,combinedTrials.thisRepN,combinedTrials.thisTrialN,combinedTrials.thisN,combinedTrials.thisIndex,WelcomeKey.keys,WelcomeKey.rt,key_resp_2.keys,key_resp_2.rt,AudioInstrAccept.keys,AudioInstrAccept.rt,LeftorRight.keys,LeftorRight.rt,VisualBlock.keys,VisualBlock.rt,VisualDecision.keys,VisualDecision.rt,CombinedAccept.keys,CombinedAccept.rt,CombComparisonResponse.keys,CombComparisonResponse.rt,participant,age,frameRate,sex,expName,date,
,,,,,,,,,,,,,,,,,space,11.8875248432,,,,,,,,,,,,,,,participant9,25,59.9225663401,M,trial,2017_May_27_1221,
,,,,,,,,,,,,,,,,,,,space,4.41116499901,,,,,,,,,,,,,participant9,25,59.9225663401,M,trial,2017_May_27_1221,
,,,,,,,,,,,,,,,,,,,,,space,0.100392103195,,,,,,,,,,,participant9,25,59.9225663401,M,trial,2017_May_27_1221,
/sounds/legit/right35.wav,right30,,,,0,0,0,3,,,,,,,,,,,,,,,right,0.0849409103394,,,,,,,,,participant9,25,59.9225663401,M,trial,2017_May_27_1221,
/sounds/legit/left70.wav,left60,,,,0,1,1,1,,,,,,,,,,,,,,,left,0.151698112488,,,,,,,,,participant9,25,59.9225663401,M,trial,2017_May_27_1221,
/sounds/legit/right100.wav,right100,,,,0,2,2,5,,,,,,,,,,,,,,,right,0.118088960648,,,,,,,,,participant9,25,59.9225663401,M,trial,2017_May_27_1221,
/sounds/legit/left100.wav,left100,,,,0,3,3,0,,,,,,,,,,,,,,,left,0.185031175613,,,,,,,,,participant9,25,59.9225663401,M,trial,2017_May_27_1221,
/sounds/legit/left35.wav,left30,,,,0,4,4,2,,,,,,,,,,,,,,,left,0.28529715538,,,,,,,,,participant9,25,59.9225663401,M,trial,2017_May_27_1221,
/sounds/legit/right70.wav,right60,,,,0,5,5,4,,,,,,,,,,,,,,,right,1.18721985817,,,,,,,,,participant9,25,59.9225663401,M,trial,2017_May_27_1221,
/sounds/legit/equal.wav,equal,,,,0,6,6,6,,,,,,,,,,,,,,,left,1.47137308121,,,,,,,,,participant9,25,59.9225663401,M,trial,2017_May_27_1221,
/sounds/legit/left35.wav,left30,,,,1,0,7,2,,,,,,,,,,,,,,,left,0.585833072662,,,,,,,,,participant9,25,59.9225663401,M,trial,2017_May_27_1221,
/sounds/legit/left100.wav,left100,,,,1,1,8,0,,,,,,,,,,,,,,,left,0.201820135117,,,,,,,,,participant9,25,59.9225663401,M,trial,2017_May_27_1221,
/sounds/legit/right70.wav,right60,,,,1,2,9,4,,,,,,,,,,,,,,,right,0.234091043472,,,,,,,,,participant9,25,59.9225663401,M,trial,2017_May_27_1221,
/sounds/legit/equal.wav,equal,,,,1,3,10,6,,,,,,,,,,,,,,,left,0.335351228714,,,,,,,,,participant9,25,59.9225663401,M,trial,2017_May_27_1221,
/sounds/legit/left70.wav,left60,,,,1,4,11,1,,,,,,,,,,,,,,,left,0.217952013016,,,,,,,,,participant9,25,59.9225663401,M,trial,2017_May_27_1221,
/sounds/legit/right100.wav,right100,,,,1,5,12,5,,,,,,,,,,,,,,,right,0.235193967819,,,,,,,,,participant9,25,59.9225663401,M,trial,2017_May_27_1221,
/sounds/legit/right35.wav,right30,,,,1,6,13,3,,,,,,,,,,,,,,,right,0.26876616478,,,,,,,,,participant9,25,59.9225663401,M,trial,2017_May_27_1221,
/sounds/legit/left100.wav,left100,,,,2,0,14,0,,,,,,,,,,,,,,,left,0.185256958008,,,,,,,,,participant9,25,59.9225663401,M,trial,2017_May_27_1221,
/sounds/legit/equal.wav,equal,,,,2,1,15,6,,,,,,,,,,,,,,,right,0.302163124084,,,,,,,,,participant9,25,59.9225663401,M,trial,2017_May_27_1221,
/sounds/legit/right35.wav,right30,,,,2,2,16,3,,,,,,,,,,,,,,,right,0.686161994934,,,,,,,,,participant9,25,59.9225663401,M,trial,2017_May_27_1221,
/sounds/legit/left35.wav,left30,,,,2,3,17,2,,,,,,,,,,,,,,,left,0.368642091751,,,,,,,,,participant9,25,59.9225663401,M,trial,2017_May_27_1221,
/sounds/legit/right70.wav,right60,,,,2,4,18,4,,,,,,,,,,,,,,,right,0.235225915909,,,,,,,,,participant9,25,59.9225663401,M,trial,2017_May_27_1221,
/sounds/legit/left70.wav,left60,,,,2,5,19,1,,,,,,,,,,,,,,,left,0.0515480041504,,,,,,,,,participant9,25,59.9225663401,M,trial,2017_May_27_1221,
/sounds/legit/right100.wav,right100,,,,2,6,20,5,,,,,,,,,,,,,,,right,0.0348949432373,,,,,,,,,participant9,25,59.9225663401,M,trial,2017_May_27_1221,
/sounds/legit/left100.wav,left100,,,,3,0,21,0,,,,,,,,,,,,,,,left,0.0849480628967,,,,,,,,,participant9,25,59.9225663401,M,trial,2017_May_27_1221,
/sounds/legit/right70.wav,right60,,,,3,1,22,4,,,,,,,,,,,,,,,right,0.135057926178,,,,,,,,,participant9,25,59.9225663401,M,trial,2017_May_27_1221,
/sounds/legit/right100.wav,right100,,,,3,2,23,5,,,,,,,,,,,,,,,right,0.0513768196106,,,,,,,,,participant9,25,59.9225663401,M,trial,2017_May_27_1221,
/sounds/legit/equal.wav,equal,,,,3,3,24,6,,,,,,,,,,,,,,,left,2.97444105148,,,,,,,,,participant9,25,59.9225663401,M,trial,2017_May_27_1221,
/sounds/legit/left35.wav,left30,,,,3,4,25,2,,,,,,,,,,,,,,,left,0.285455942154,,,,,,,,,participant9,25,59.9225663401,M,trial,2017_May_27_1221,
/sounds/legit/left70.wav,left60,,,,3,5,26,1,,,,,,,,,,,,,,,left,0.719639062881,,,,,,,,,participant9,25,59.9225663401,M,trial,2017_May_27_1221,
/sounds/legit/right35.wav,right30,,,,3,6,27,3,,,,,,,,,,,,,,,right,0.352130889893,,,,,,,,,participant9,25,59.9225663401,M,trial,2017_May_27_1221,
/sounds/legit/left70.wav,left60,,,,4,0,28,1,,,,,,,,,,,,,,,left,0.185218095779,,,,,,,,,participant9,25,59.9225663401,M,trial,2017_May_27_1221,
/sounds/legit/left100.wav,left100,,,,4,1,29,0,,,,,,,,,,,,,,,left,0.201956987381,,,,,,,,,participant9,25,59.9225663401,M,trial,2017_May_27_1221,
/sounds/legit/right35.wav,right30,,,,4,2,30,3,,,,,,,,,,,,,,,right,0.218301057816,,,,,,,,,participant9,25,59.9225663401,M,trial,2017_May_27_1221,
/sounds/legit/equal.wav,equal,,,,4,3,31,6,,,,,,,,,,,,,,,left,0.351938962936,,,,,,,,,participant9,25,59.9225663401,M,trial,2017_May_27_1221,
/sounds/legit/right70.wav,right60,,,,4,4,32,4,,,,,,,,,,,,,,,right,0.0348660945892,,,,,,,,,participant9,25,59.9225663401,M,trial,2017_May_27_1221,
/sounds/legit/left35.wav,left30,,,,4,5,33,2,,,,,,,,,,,,,,,left,0.268644094467,,,,,,,,,participant9,25,59.9225663401,M,trial,2017_May_27_1221,
/sounds/legit/right100.wav,right100,,,,4,6,34,5,,,,,,,,,,,,,,,right,0.118175029755,,,,,,,,,participant9,25,59.9225663401,M,trial,2017_May_27_1221,
/sounds/legit/right35.wav,right30,,,,5,0,35,3,,,,,,,,,,,,,,,right,0.251751899719,,,,,,,,,participant9,25,59.9225663401,M,trial,2017_May_27_1221,
/sounds/legit/right70.wav,right60,,,,5,1,36,4,,,,,,,,,,,,,,,right,0.168422937393,,,,,,,,,participant9,25,59.9225663401,M,trial,2017_May_27_1221,
/sounds/legit/equal.wav,equal,,,,5,2,37,6,,,,,,,,,,,,,,,left,0.285189151764,,,,,,,,,participant9,25,59.9225663401,M,trial,2017_May_27_1221,
/sounds/legit/right100.wav,right100,,,,5,3,38,5,,,,,,,,,,,,,,,right,0.201915025711,,,,,,,,,participant9,25,59.9225663401,M,trial,2017_May_27_1221,
/sounds/legit/left70.wav,left60,,,,5,4,39,1,,,,,,,,,,,,,,,left,0.235065937042,,,,,,,,,participant9,25,59.9225663401,M,trial,2017_May_27_1221,
/sounds/legit/left100.wav,left100,,,,5,5,40,0,,,,,,,,,,,,,,,left,0.0848319530487,,,,,,,,,participant9,25,59.9225663401,M,trial,2017_May_27_1221,
/sounds/legit/left35.wav,left30,,,,5,6,41,2,,,,,,,,,,,,,,,left,0.402302026749,,,,,,,,,participant9,25,59.9225663401,M,trial,2017_May_27_1221,
/sounds/legit/equal.wav,equal,,,,6,0,42,6,,,,,,,,,,,,,,,left,0.300931930542,,,,,,,,,participant9,25,59.9225663401,M,trial,2017_May_27_1221,
/sounds/legit/left35.wav,left30,,,,6,1,43,2,,,,,,,,,,,,,,,left,0.168494939804,,,,,,,,,participant9,25,59.9225663401,M,trial,2017_May_27_1221,
/sounds/legit/right35.wav,right30,,,,6,2,44,3,,,,,,,,,,,,,,,right,0.218341827393,,,,,,,,,participant9,25,59.9225663401,M,trial,2017_May_27_1221,
/sounds/legit/left100.wav,left100,,,,6,3,45,0,,,,,,,,,,,,,,,left,0.118249893188,,,,,,,,,participant9,25,59.9225663401,M,trial,2017_May_27_1221,
/sounds/legit/right70.wav,right60,,,,6,4,46,4,,,,,,,,,,,,,,,right,0.0848598480225,,,,,,,,,participant9,25,59.9225663401,M,trial,2017_May_27_1221,
/sounds/legit/right100.wav,right100,,,,6,5,47,5,,,,,,,,,,,,,,,right,0.0180969238281,,,,,,,,,participant9,25,59.9225663401,M,trial,2017_May_27_1221,
/sounds/legit/left70.wav,left60,,,,6,6,48,1,,,,,,,,,,,,,,,left,0.33526802063,,,,,,,,,participant9,25,59.9225663401,M,trial,2017_May_27_1221,
/sounds/legit/equal.wav,equal,,,,7,0,49,6,,,,,,,,,,,,,,,left,0.819650888443,,,,,,,,,participant9,25,59.9225663401,M,trial,2017_May_27_1221,
/sounds/legit/right100.wav,right100,,,,7,1,50,5,,,,,,,,,,,,,,,right,0.0513389110565,,,,,,,,,participant9,25,59.9225663401,M,trial,2017_May_27_1221,
/sounds/legit/right35.wav,right30,,,,7,2,51,3,,,,,,,,,,,,,,,right,0.235113859177,,,,,,,,,participant9,25,59.9225663401,M,trial,2017_May_27_1221,
/sounds/legit/left35.wav,left30,,,,7,3,52,2,,,,,,,,,,,,,,,left,0.335592985153,,,,,,,,,participant9,25,59.9225663401,M,trial,2017_May_27_1221,
/sounds/legit/left70.wav,left60,,,,7,4,53,1,,,,,,,,,,,,,,,left,0.118150949478,,,,,,,,,participant9,25,59.9225663401,M,trial,2017_May_27_1221,
/sounds/legit/right70.wav,right60,,,,7,5,54,4,,,,,,,,,,,,,,,right,0.0514400005341,,,,,,,,,participant9,25,59.9225663401,M,trial,2017_May_27_1221,
/sounds/legit/left100.wav,left100,,,,7,6,55,0,,,,,,,,,,,,,,,left,0.0350658893585,,,,,,,,,participant9,25,59.9225663401,M,trial,2017_May_27_1221,
/sounds/legit/left70.wav,left60,,,,8,0,56,1,,,,,,,,,,,,,,,left,0.218674182892,,,,,,,,,participant9,25,59.9225663401,M,trial,2017_May_27_1221,
/sounds/legit/left35.wav,left30,,,,8,1,57,2,,,,,,,,,,,,,,,left,0.235097169876,,,,,,,,,participant9,25,59.9225663401,M,trial,2017_May_27_1221,
/sounds/legit/equal.wav,equal,,,,8,2,58,6,,,,,,,,,,,,,,,left,0.218528032303,,,,,,,,,participant9,25,59.9225663401,M,trial,2017_May_27_1221,
/sounds/legit/right35.wav,right30,,,,8,3,59,3,,,,,,,,,,,,,,,right,0.234949827194,,,,,,,,,participant9,25,59.9225663401,M,trial,2017_May_27_1221,
/sounds/legit/right100.wav,right100,,,,8,4,60,5,,,,,,,,,,,,,,,right,0.553102016449,,,,,,,,,participant9,25,59.9225663401,M,trial,2017_May_27_1221,
/sounds/legit/right70.wav,right60,,,,8,5,61,4,,,,,,,,,,,,,,,right,0.151841878891,,,,,,,,,participant9,25,59.9225663401,M,trial,2017_May_27_1221,
/sounds/legit/left100.wav,left100,,,,8,6,62,0,,,,,,,,,,,,,,,left,0.135062932968,,,,,,,,,participant9,25,59.9225663401,M,trial,2017_May_27_1221,
/sounds/legit/equal.wav,equal,,,,9,0,63,6,,,,,,,,,,,,,,,left,0.184962034225,,,,,,,,,participant9,25,59.9225663401,M,trial,2017_May_27_1221,
/sounds/legit/left35.wav,left30,,,,9,1,64,2,,,,,,,,,,,,,,,left,0.0848939418793,,,,,,,,,participant9,25,59.9225663401,M,trial,2017_May_27_1221,
/sounds/legit/right70.wav,right60,,,,9,2,65,4,,,,,,,,,,,,,,,right,0.65270113945,,,,,,,,,participant9,25,59.9225663401,M,trial,2017_May_27_1221,
/sounds/legit/left70.wav,left60,,,,9,3,66,1,,,,,,,,,,,,,,,left,0.1519510746,,,,,,,,,participant9,25,59.9225663401,M,trial,2017_May_27_1221,
/sounds/legit/right100.wav,right100,,,,9,4,67,5,,,,,,,,,,,,,,,right,0.0852041244507,,,,,,,,,participant9,25,59.9225663401,M,trial,2017_May_27_1221,
/sounds/legit/right35.wav,right30,,,,9,5,68,3,,,,,,,,,,,,,,,right,0.285228967667,,,,,,,,,participant9,25,59.9225663401,M,trial,2017_May_27_1221,
/sounds/legit/left100.wav,left100,,,,9,6,69,0,,,,,,,,,,,,,,,left,0.10188293457,,,,,,,,,participant9,25,59.9225663401,M,trial,2017_May_27_1221,
,,,,,,,,,,,,,,,,,,,,,,,,,space,7.53482794762,,,,,,,participant9,25,59.9225663401,M,trial,2017_May_27_1221,
,,0.23,"[-2.25, 0]",/sounds/legit/left35.wav,,,,,0,0,0,21,,,,,,,,,,,,,,,left,0.218561887741,,,,,participant9,25,59.9225663401,M,trial,2017_May_27_1221,
,,0.49,"[-6.75, 0]",/sounds/legit/left100.wav,,,,,0,1,1,33,,,,,,,,,,,,,,,left,0.318681001663,,,,,participant9,25,59.9225663401,M,trial,2017_May_27_1221,
,,0.49,"[-2.25, 0]",/sounds/legit/left35.wav,,,,,0,2,2,23,,,,,,,,,,,,,,,left,0.502341032028,,,,,participant9,25,59.9225663401,M,trial,2017_May_27_1221,
,,0.62,"[2.25, 0]",/sounds/legit/right35.wav,,,,,0,3,3,9,,,,,,,,,,,,,,,right,0.602619886398,,,,,participant9,25,59.9225663401,M,trial,2017_May_27_1221,
,,0.23,"[0, 0]",/sounds/legit/equal.wav,,,,,0,4,4,1,,,,,,,,,,,,,,,left,3.80963110924,,,,,participant9,25,59.9225663401,M,trial,2017_May_27_1221,
,,0.36,"[-2.25, 0]",/sounds/legit/left35.wav,,,,,0,5,5,22,,,,,,,,,,,,,,,left,1.23727083206,,,,,participant9,25,59.9225663401,M,trial,2017_May_27_1221,
,,0.36,"[-6.75, 0]",/sounds/legit/left100.wav,,,,,0,6,6,32,,,,,,,,,,,,,,,left,0.385315895081,,,,,participant9,25,59.9225663401,M,trial,2017_May_27_1221,
,,0.62,"[-6.75, 0]",/sounds/legit/left100.wav,,,,,0,7,7,34,,,,,,,,,,,,,,,left,2.94108009338,,,,,participant9,25,59.9225663401,M,trial,2017_May_27_1221,
,,0.62,"[-4.5, 0]",/sounds/legit/left70.wav,,,,,0,8,8,29,,,,,,,,,,,,,,,left,0.301957130432,,,,,participant9,25,59.9225663401,M,trial,2017_May_27_1221,
,,0.62,"[4.5, 0]",/sounds/legit/right70.wav,,,,,0,9,9,14,,,,,,,,,,,,,,,right,0.235236167908,,,,,participant9,25,59.9225663401,M,trial,2017_May_27_1221,
,,0.36,"[4.5, 0]",/sounds/legit/right70.wav,,,,,0,10,10,12,,,,,,,,,,,,,,,right,1.2707669735,,,,,participant9,25,59.9225663401,M,trial,2017_May_27_1221,
,,0.36,"[0, 0]",/sounds/legit/equal.wav,,,,,0,11,11,2,,,,,,,,,,,,,,,left,1.65513491631,,,,,participant9,25,59.9225663401,M,trial,2017_May_27_1221,
,,0.36,"[-4.5, 0]",/sounds/legit/left70.wav,,,,,0,12,12,27,,,,,,,,,,,,,,,left,0.485718011856,,,,,participant9,25,59.9225663401,M,trial,2017_May_27_1221,
,,0.23,"[2.25, 0]",/sounds/legit/right35.wav,,,,,0,13,13,6,,,,,,,,,,,,,,,right,0.234247922897,,,,,participant9,25,59.9225663401,M,trial,2017_May_27_1221,
,,0.1,"[2.25, 0]",/sounds/legit/right35.wav,,,,,0,14,14,5,,,,,,,,,,,,,,,right,0.134858131409,,,,,participant9,25,59.9225663401,M,trial,2017_May_27_1221,
,,0.23,"[4.5, 0]",/sounds/legit/right70.wav,,,,,0,15,15,11,,,,,,,,,,,,,,,right,0.150744915009,,,,,participant9,25,59.9225663401,M,trial,2017_May_27_1221,
,,0.23,"[-4.5, 0]",/sounds/legit/left70.wav,,,,,0,16,16,26,,,,,,,,,,,,,,,left,0.0348038673401,,,,,participant9,25,59.9225663401,M,trial,2017_May_27_1221,
,,0.49,"[0, 0]",/sounds/legit/equal.wav,,,,,0,17,17,3,,,,,,,,,,,,,,,right,0.0848269462585,,,,,participant9,25,59.9225663401,M,trial,2017_May_27_1221,
,,0.49,"[-4.5, 0]",/sounds/legit/left70.wav,,,,,0,18,18,28,,,,,,,,,,,,,,,left,0.251764059067,,,,,participant9,25,59.9225663401,M,trial,2017_May_27_1221,
,,0.49,"[6.75, 0]",/sounds/legit/right100.wav,,,,,0,19,19,18,,,,,,,,,,,,,,,right,0.352205991745,,,,,participant9,25,59.9225663401,M,trial,2017_May_27_1221,
,,0.62,"[-2.25, 0]",/sounds/legit/left35.wav,,,,,0,20,20,24,,,,,,,,,,,,,,,left,0.285346031189,,,,,participant9,25,59.9225663401,M,trial,2017_May_27_1221,
,,0.1,"[-6.75, 0]",/sounds/legit/left100.wav,,,,,0,21,21,30,,,,,,,,,,,,,,,left,0.452293157578,,,,,participant9,25,59.9225663401,M,trial,2017_May_27_1221,
,,0.62,"[6.75, 0]",/sounds/legit/right100.wav,,,,,0,22,22,19,,,,,,,,,,,,,,,right,0.702738046646,,,,,participant9,25,59.9225663401,M,trial,2017_May_27_1221,
,,0.1,"[-4.5, 0]",/sounds/legit/left70.wav,,,,,0,23,23,25,,,,,,,,,,,,,,,left,0.602687120438,,,,,participant9,25,59.9225663401,M,trial,2017_May_27_1221,
,,0.49,"[4.5, 0]",/sounds/legit/right70.wav,,,,,0,24,24,13,,,,,,,,,,,,,,,left,2.85745501518,,,,,participant9,25,59.9225663401,M,trial,2017_May_27_1221,
,,0.1,"[6.75, 0]",/sounds/legit/right100.wav,,,,,0,25,25,15,,,,,,,,,,,,,,,right,0.285284042358,,,,,participant9,25,59.9225663401,M,trial,2017_May_27_1221,
,,0.1,"[-2.25, 0]",/sounds/legit/left35.wav,,,,,0,26,26,20,,,,,,,,,,,,,,,left,0.552495956421,,,,,participant9,25,59.9225663401,M,trial,2017_May_27_1221,
,,0.36,"[2.25, 0]",/sounds/legit/right35.wav,,,,,0,27,27,7,,,,,,,,,,,,,,,right,0.469015836716,,,,,participant9,25,59.9225663401,M,trial,2017_May_27_1221,
,,0.23,"[6.75, 0]",/sounds/legit/right100.wav,,,,,0,28,28,16,,,,,,,,,,,,,,,right,0.0512299537659,,,,,participant9,25,59.9225663401,M,trial,2017_May_27_1221,
,,0.36,"[6.75, 0]",/sounds/legit/right100.wav,,,,,0,29,29,17,,,,,,,,,,,,,,,right,0.268869876862,,,,,participant9,25,59.9225663401,M,trial,2017_May_27_1221,
,,0.62,"[0, 0]",/sounds/legit/equal.wav,,,,,0,30,30,4,,,,,,,,,,,,,,,left,1.00366210938,,,,,participant9,25,59.9225663401,M,trial,2017_May_27_1221,
,,0.49,"[2.25, 0]",/sounds/legit/right35.wav,,,,,0,31,31,8,,,,,,,,,,,,,,,right,1.07024884224,,,,,participant9,25,59.9225663401,M,trial,2017_May_27_1221,
,,0.1,"[0, 0]",/sounds/legit/equal.wav,,,,,0,32,32,0,,,,,,,,,,,,,,,left,0.669144153595,,,,,participant9,25,59.9225663401,M,trial,2017_May_27_1221,
,,0.23,"[-6.75, 0]",/sounds/legit/left100.wav,,,,,0,33,33,31,,,,,,,,,,,,,,,left,0.335532903671,,,,,participant9,25,59.9225663401,M,trial,2017_May_27_1221,
,,0.1,"[4.5, 0]",/sounds/legit/right70.wav,,,,,0,34,34,10,,,,,,,,,,,,,,,right,0.252233028412,,,,,participant9,25,59.9225663401,M,trial,2017_May_27_1221,
,,0.1,"[6.75, 0]",/sounds/legit/right100.wav,,,,,1,0,35,15,,,,,,,,,,,,,,,right,0.285092115402,,,,,participant9,25,59.9225663401,M,trial,2017_May_27_1221,
,,0.49,"[-4.5, 0]",/sounds/legit/left70.wav,,,,,1,1,36,28,,,,,,,,,,,,,,,left,1.70474696159,,,,,participant9,25,59.9225663401,M,trial,2017_May_27_1221,
,,0.23,"[2.25, 0]",/sounds/legit/right35.wav,,,,,1,2,37,6,,,,,,,,,,,,,,,right,0.0179808139801,,,,,participant9,25,59.9225663401,M,trial,2017_May_27_1221,
,,0.49,"[-2.25, 0]",/sounds/legit/left35.wav,,,,,1,3,38,23,,,,,,,,,,,,,,,left,0.184997081757,,,,,participant9,25,59.9225663401,M,trial,2017_May_27_1221,
,,0.23,"[6.75, 0]",/sounds/legit/right100.wav,,,,,1,4,39,16,,,,,,,,,,,,,,,right,0.184917926788,,,,,participant9,25,59.9225663401,M,trial,2017_May_27_1221,
,,0.49,"[-6.75, 0]",/sounds/legit/left100.wav,,,,,1,5,40,33,,,,,,,,,,,,,,,left,0.0680589675903,,,,,participant9,25,59.9225663401,M,trial,2017_May_27_1221,
,,0.62,"[6.75, 0]",/sounds/legit/right100.wav,,,,,1,6,41,19,,,,,,,,,,,,,,,right,0.535780906677,,,,,participant9,25,59.9225663401,M,trial,2017_May_27_1221,
,,0.36,"[-2.25, 0]",/sounds/legit/left35.wav,,,,,1,7,42,22,,,,,,,,,,,,,,,left,0.135016918182,,,,,participant9,25,59.9225663401,M,trial,2017_May_27_1221,
,,0.62,"[2.25, 0]",/sounds/legit/right35.wav,,,,,1,8,43,9,,,,,,,,,,,,,,,right,0.469038009644,,,,,participant9,25,59.9225663401,M,trial,2017_May_27_1221,
,,0.36,"[0, 0]",/sounds/legit/equal.wav,,,,,1,9,44,2,,,,,,,,,,,,,,,left,0.720793962479,,,,,participant9,25,59.9225663401,M,trial,2017_May_27_1221,
,,0.49,"[4.5, 0]",/sounds/legit/right70.wav,,,,,1,10,45,13,,,,,,,,,,,,,,,right,0.318511009216,,,,,participant9,25,59.9225663401,M,trial,2017_May_27_1221,
,,0.23,"[4.5, 0]",/sounds/legit/right70.wav,,,,,1,11,46,11,,,,,,,,,,,,,,,right,0.0347380638123,,,,,participant9,25,59.9225663401,M,trial,2017_May_27_1221,
,,0.23,"[-2.25, 0]",/sounds/legit/left35.wav,,,,,1,12,47,21,,,,,,,,,,,,,,,left,1.68817996979,,,,,participant9,25,59.9225663401,M,trial,2017_May_27_1221,
,,0.36,"[6.75, 0]",/sounds/legit/right100.wav,,,,,1,13,48,17,,,,,,,,,,,,,,,right,0.118065834045,,,,,participant9,25,59.9225663401,M,trial,2017_May_27_1221,
,,0.1,"[0, 0]",/sounds/legit/equal.wav,,,,,1,14,49,0,,,,,,,,,,,,,,,left,0.452342987061,,,,,participant9,25,59.9225663401,M,trial,2017_May_27_1221,
,,0.62,"[0, 0]",/sounds/legit/equal.wav,,,,,1,15,50,4,,,,,,,,,,,,,,,left,0.418700933456,,,,,participant9,25,59.9225663401,M,trial,2017_May_27_1221,
,,0.1,"[-2.25, 0]",/sounds/legit/left35.wav,,,,,1,16,51,20,,,,,,,,,,,,,,,left,0.0680401325226,,,,,participant9,25,59.9225663401,M,trial,2017_May_27_1221,
,,0.23,"[-4.5, 0]",/sounds/legit/left70.wav,,,,,1,17,52,26,,,,,,,,,,,,,,,left,1.57145690918,,,,,participant9,25,59.9225663401,M,trial,2017_May_27_1221,
,,0.49,"[0, 0]",/sounds/legit/equal.wav,,,,,1,18,53,3,,,,,,,,,,,,,,,left,0.318201065063,,,,,participant9,25,59.9225663401,M,trial,2017_May_27_1221,
,,0.62,"[-2.25, 0]",/sounds/legit/left35.wav,,,,,1,19,54,24,,,,,,,,,,,,,,,left,0.369091033936,,,,,participant9,25,59.9225663401,M,trial,2017_May_27_1221,
,,0.1,"[-4.5, 0]",/sounds/legit/left70.wav,,,,,1,20,55,25,,,,,,,,,,,,,,,left,0.0184469223022,,,,,participant9,25,59.9225663401,M,trial,2017_May_27_1221,
,,0.1,"[-6.75, 0]",/sounds/legit/left100.wav,,,,,1,21,56,30,,,,,,,,,,,,,,,left,0.0344929695129,,,,,participant9,25,59.9225663401,M,trial,2017_May_27_1221,
,,0.1,"[2.25, 0]",/sounds/legit/right35.wav,,,,,1,22,57,5,,,,,,,,,,,,,,,right,0.00138688087463,,,,,participant9,25,59.9225663401,M,trial,2017_May_27_1221,
,,0.36,"[-4.5, 0]",/sounds/legit/left70.wav,,,,,1,23,58,27,,,,,,,,,,,,,,,left,2.22238588333,,,,,participant9,25,59.9225663401,M,trial,2017_May_27_1221,
,,0.36,"[4.5, 0]",/sounds/legit/right70.wav,,,,,1,24,59,12,,,,,,,,,,,,,,,right,0.118293046951,,,,,participant9,25,59.9225663401,M,trial,2017_May_27_1221,
,,0.62,"[-4.5, 0]",/sounds/legit/left70.wav,,,,,1,25,60,29,,,,,,,,,,,,,,,left,0.319055080414,,,,,participant9,25,59.9225663401,M,trial,2017_May_27_1221,
,,0.23,"[0, 0]",/sounds/legit/equal.wav,,,,,1,26,61,1,,,,,,,,,,,,,,,left,0.301801919937,,,,,participant9,25,59.9225663401,M,trial,2017_May_27_1221,
,,0.36,"[2.25, 0]",/sounds/legit/right35.wav,,,,,1,27,62,7,,,,,,,,,,,,,,,right,0.402178049088,,,,,participant9,25,59.9225663401,M,trial,2017_May_27_1221,
,,0.36,"[-6.75, 0]",/sounds/legit/left100.wav,,,,,1,28,63,32,,,,,,,,,,,,,,,left,0.201642990112,,,,,participant9,25,59.9225663401,M,trial,2017_May_27_1221,
,,0.62,"[4.5, 0]",/sounds/legit/right70.wav,,,,,1,29,64,14,,,,,,,,,,,,,,,right,0.151843070984,,,,,participant9,25,59.9225663401,M,trial,2017_May_27_1221,
,,0.49,"[2.25, 0]",/sounds/legit/right35.wav,,,,,1,30,65,8,,,,,,,,,,,,,,,right,0.0681002140045,,,,,participant9,25,59.9225663401,M,trial,2017_May_27_1221,
,,0.23,"[-6.75, 0]",/sounds/legit/left100.wav,,,,,1,31,66,31,,,,,,,,,,,,,,,left,0.117944955826,,,,,participant9,25,59.9225663401,M,trial,2017_May_27_1221,
,,0.49,"[6.75, 0]",/sounds/legit/right100.wav,,,,,1,32,67,18,,,,,,,,,,,,,,,right,0.0181331634521,,,,,participant9,25,59.9225663401,M,trial,2017_May_27_1221,
,,0.1,"[4.5, 0]",/sounds/legit/right70.wav,,,,,1,33,68,10,,,,,,,,,,,,,,,right,1.45447707176,,,,,participant9,25,59.9225663401,M,trial,2017_May_27_1221,
,,0.62,"[-6.75, 0]",/sounds/legit/left100.wav,,,,,1,34,69,34,,,,,,,,,,,,,,,left,0.268265008926,,,,,participant9,25,59.9225663401,M,trial,2017_May_27_1221,
,,0.62,"[-4.5, 0]",/sounds/legit/left70.wav,,,,,2,0,70,29,,,,,,,,,,,,,,,left,0.418715000153,,,,,participant9,25,59.9225663401,M,trial,2017_May_27_1221,
,,0.36,"[6.75, 0]",/sounds/legit/right100.wav,,,,,2,1,71,17,,,,,,,,,,,,,,,right,0.201637983322,,,,,participant9,25,59.9225663401,M,trial,2017_May_27_1221,
,,0.23,"[6.75, 0]",/sounds/legit/right100.wav,,,,,2,2,72,16,,,,,,,,,,,,,,,right,0.285079956055,,,,,participant9,25,59.9225663401,M,trial,2017_May_27_1221,
,,0.49,"[-6.75, 0]",/sounds/legit/left100.wav,,,,,2,3,73,33,,,,,,,,,,,,,,,right,1.02006411552,,,,,participant9,25,59.9225663401,M,trial,2017_May_27_1221,
,,0.62,"[0, 0]",/sounds/legit/equal.wav,,,,,2,4,74,4,,,,,,,,,,,,,,,right,0.736011981964,,,,,participant9,25,59.9225663401,M,trial,2017_May_27_1221,
,,0.1,"[6.75, 0]",/sounds/legit/right100.wav,,,,,2,5,75,15,,,,,,,,,,,,,,,right,0.385511875153,,,,,participant9,25,59.9225663401,M,trial,2017_May_27_1221,
,,0.23,"[2.25, 0]",/sounds/legit/right35.wav,,,,,2,6,76,6,,,,,,,,,,,,,,,right,0.335353136063,,,,,participant9,25,59.9225663401,M,trial,2017_May_27_1221,
,,0.23,"[-2.25, 0]",/sounds/legit/left35.wav,,,,,2,7,77,21,,,,,,,,,,,,,,,left,0.235085964203,,,,,participant9,25,59.9225663401,M,trial,2017_May_27_1221,
,,0.36,"[-6.75, 0]",/sounds/legit/left100.wav,,,,,2,8,78,32,,,,,,,,,,,,,,,left,0.0681340694427,,,,,participant9,25,59.9225663401,M,trial,2017_May_27_1221,
,,0.36,"[0, 0]",/sounds/legit/equal.wav,,,,,2,9,79,2,,,,,,,,,,,,,,,left,0.46888589859,,,,,participant9,25,59.9225663401,M,trial,2017_May_27_1221,
,,0.36,"[-2.25, 0]",/sounds/legit/left35.wav,,,,,2,10,80,22,,,,,,,,,,,,,,,left,0.235200881958,,,,,participant9,25,59.9225663401,M,trial,2017_May_27_1221,
,,0.23,"[4.5, 0]",/sounds/legit/right70.wav,,,,,2,11,81,11,,,,,,,,,,,,,,,right,0.185134887695,,,,,participant9,25,59.9225663401,M,trial,2017_May_27_1221,
,,0.1,"[0, 0]",/sounds/legit/equal.wav,,,,,2,12,82,0,,,,,,,,,,,,,,,left,0.402329921722,,,,,participant9,25,59.9225663401,M,trial,2017_May_27_1221,
,,0.62,"[6.75, 0]",/sounds/legit/right100.wav,,,,,2,13,83,19,,,,,,,,,,,,,,,right,0.452162027359,,,,,participant9,25,59.9225663401,M,trial,2017_May_27_1221,
,,0.49,"[4.5, 0]",/sounds/legit/right70.wav,,,,,2,14,84,13,,,,,,,,,,,,,,,right,0.285310029984,,,,,participant9,25,59.9225663401,M,trial,2017_May_27_1221,
,,0.49,"[0, 0]",/sounds/legit/equal.wav,,,,,2,15,85,3,,,,,,,,,,,,,,,left,0.534915924072,,,,,participant9,25,59.9225663401,M,trial,2017_May_27_1221,
,,0.62,"[-2.25, 0]",/sounds/legit/left35.wav,,,,,2,16,86,24,,,,,,,,,,,,,,,left,0.552581071854,,,,,participant9,25,59.9225663401,M,trial,2017_May_27_1221,
,,0.49,"[2.25, 0]",/sounds/legit/right35.wav,,,,,2,17,87,8,,,,,,,,,,,,,,,right,0.301906108856,,,,,participant9,25,59.9225663401,M,trial,2017_May_27_1221,
,,0.62,"[2.25, 0]",/sounds/legit/right35.wav,,,,,2,18,88,9,,,,,,,,,,,,,,,right,0.151447057724,,,,,participant9,25,59.9225663401,M,trial,2017_May_27_1221,
,,0.23,"[-6.75, 0]",/sounds/legit/left100.wav,,,,,2,19,89,31,,,,,,,,,,,,,,,left,0.168227910995,,,,,participant9,25,59.9225663401,M,trial,2017_May_27_1221,
,,0.49,"[-2.25, 0]",/sounds/legit/left35.wav,,,,,2,20,90,23,,,,,,,,,,,,,,,right,1.77140402794,,,,,participant9,25,59.9225663401,M,trial,2017_May_27_1221,
,,0.1,"[4.5, 0]",/sounds/legit/right70.wav,,,,,2,21,91,10,,,,,,,,,,,,,,,right,0.41904592514,,,,,participant9,25,59.9225663401,M,trial,2017_May_27_1221,
,,0.23,"[0, 0]",/sounds/legit/equal.wav,,,,,2,22,92,1,,,,,,,,,,,,,,,left,0.718585968018,,,,,participant9,25,59.9225663401,M,trial,2017_May_27_1221,
,,0.62,"[4.5, 0]",/sounds/legit/right70.wav,,,,,2,23,93,14,,,,,,,,,,,,,,,right,0.535905122757,,,,,participant9,25,59.9225663401,M,trial,2017_May_27_1221,
,,0.36,"[4.5, 0]",/sounds/legit/right70.wav,,,,,2,24,94,12,,,,,,,,,,,,,,,right,0.302016973495,,,,,participant9,25,59.9225663401,M,trial,2017_May_27_1221,
,,0.1,"[-4.5, 0]",/sounds/legit/left70.wav,,,,,2,25,95,25,,,,,,,,,,,,,,,left,0.0180640220642,,,,,participant9,25,59.9225663401,M,trial,2017_May_27_1221,
,,0.1,"[-2.25, 0]",/sounds/legit/left35.wav,,,,,2,26,96,20,,,,,,,,,,,,,,,left,0.986567020416,,,,,participant9,25,59.9225663401,M,trial,2017_May_27_1221,
,,0.62,"[-6.75, 0]",/sounds/legit/left100.wav,,,,,2,27,97,34,,,,,,,,,,,,,,,left,0.469048023224,,,,,participant9,25,59.9225663401,M,trial,2017_May_27_1221,
,,0.36,"[2.25, 0]",/sounds/legit/right35.wav,,,,,2,28,98,7,,,,,,,,,,,,,,,right,0.38548707962,,,,,participant9,25,59.9225663401,M,trial,2017_May_27_1221,
,,0.49,"[6.75, 0]",/sounds/legit/right100.wav,,,,,2,29,99,18,,,,,,,,,,,,,,,right,0.251826047897,,,,,participant9,25,59.9225663401,M,trial,2017_May_27_1221,
,,0.1,"[2.25, 0]",/sounds/legit/right35.wav,,,,,2,30,100,5,,,,,,,,,,,,,,,right,0.0347800254822,,,,,participant9,25,59.9225663401,M,trial,2017_May_27_1221,
,,0.23,"[-4.5, 0]",/sounds/legit/left70.wav,,,,,2,31,101,26,,,,,,,,,,,,,,,left,0.11807012558,,,,,participant9,25,59.9225663401,M,trial,2017_May_27_1221,
,,0.1,"[-6.75, 0]",/sounds/legit/left100.wav,,,,,2,32,102,30,,,,,,,,,,,,,,,left,0.0848162174225,,,,,participant9,25,59.9225663401,M,trial,2017_May_27_1221,
,,0.36,"[-4.5, 0]",/sounds/legit/left70.wav,,,,,2,33,103,27,,,,,,,,,,,,,,,left,0.084755897522,,,,,participant9,25,59.9225663401,M,trial,2017_May_27_1221,
,,0.49,"[-4.5, 0]",/sounds/legit/left70.wav,,,,,2,34,104,28,,,,,,,,,,,,,,,left,0.068146944046,,,,,participant9,25,59.9225663401,M,trial,2017_May_27_1221,
,,0.49,"[6.75, 0]",/sounds/legit/right100.wav,,,,,3,0,105,18,,,,,,,,,,,,,,,right,0.251739025116,,,,,participant9,25,59.9225663401,M,trial,2017_May_27_1221,
,,0.23,"[-2.25, 0]",/sounds/legit/left35.wav,,,,,3,1,106,21,,,,,,,,,,,,,,,left,0.351879835129,,,,,participant9,25,59.9225663401,M,trial,2017_May_27_1221,
,,0.49,"[2.25, 0]",/sounds/legit/right35.wav,,,,,3,2,107,8,,,,,,,,,,,,,,,right,0.0515079498291,,,,,participant9,25,59.9225663401,M,trial,2017_May_27_1221,
,,0.36,"[-2.25, 0]",/sounds/legit/left35.wav,,,,,3,3,108,22,,,,,,,,,,,,,,,left,0.936812877655,,,,,participant9,25,59.9225663401,M,trial,2017_May_27_1221,
,,0.23,"[-6.75, 0]",/sounds/legit/left100.wav,,,,,3,4,109,31,,,,,,,,,,,,,,,left,0.151499032974,,,,,participant9,25,59.9225663401,M,trial,2017_May_27_1221,
,,0.62,"[2.25, 0]",/sounds/legit/right35.wav,,,,,3,5,110,9,,,,,,,,,,,,,,,right,0.00137209892273,,,,,participant9,25,59.9225663401,M,trial,2017_May_27_1221,
,,0.23,"[4.5, 0]",/sounds/legit/right70.wav,,,,,3,6,111,11,,,,,,,,,,,,,,,right,0.71954703331,,,,,participant9,25,59.9225663401,M,trial,2017_May_27_1221,
,,0.1,"[-4.5, 0]",/sounds/legit/left70.wav,,,,,3,7,112,25,,,,,,,,,,,,,,,left,0.719676017761,,,,,participant9,25,59.9225663401,M,trial,2017_May_27_1221,
,,0.62,"[-2.25, 0]",/sounds/legit/left35.wav,,,,,3,8,113,24,,,,,,,,,,,,,,,left,0.519225120544,,,,,participant9,25,59.9225663401,M,trial,2017_May_27_1221,
,,0.36,"[2.25, 0]",/sounds/legit/right35.wav,,,,,3,9,114,7,,,,,,,,,,,,,,,right,0.00129985809326,,,,,participant9,25,59.9225663401,M,trial,2017_May_27_1221,
,,0.36,"[6.75, 0]",/sounds/legit/right100.wav,,,,,3,10,115,17,,,,,,,,,,,,,,,right,0.0848820209503,,,,,participant9,25,59.9225663401,M,trial,2017_May_27_1221,
,,0.62,"[-6.75, 0]",/sounds/legit/left100.wav,,,,,3,11,116,34,,,,,,,,,,,,,,,left,0.352189064026,,,,,participant9,25,59.9225663401,M,trial,2017_May_27_1221,
,,0.36,"[-6.75, 0]",/sounds/legit/left100.wav,,,,,3,12,117,32,,,,,,,,,,,,,,,left,0.00178694725037,,,,,participant9,25,59.9225663401,M,trial,2017_May_27_1221,
,,0.62,"[6.75, 0]",/sounds/legit/right100.wav,,,,,3,13,118,19,,,,,,,,,,,,,,,right,1.33757305145,,,,,participant9,25,59.9225663401,M,trial,2017_May_27_1221,
,,0.23,"[-4.5, 0]",/sounds/legit/left70.wav,,,,,3,14,119,26,,,,,,,,,,,,,,,left,0.268634796143,,,,,participant9,25,59.9225663401,M,trial,2017_May_27_1221,
,,0.62,"[4.5, 0]",/sounds/legit/right70.wav,,,,,3,15,120,14,,,,,,,,,,,,,,,right,0.452109098434,,,,,participant9,25,59.9225663401,M,trial,2017_May_27_1221,
,,0.49,"[-6.75, 0]",/sounds/legit/left100.wav,,,,,3,16,121,33,,,,,,,,,,,,,,,left,0.285099983215,,,,,participant9,25,59.9225663401,M,trial,2017_May_27_1221,
,,0.1,"[0, 0]",/sounds/legit/equal.wav,,,,,3,17,122,0,,,,,,,,,,,,,,,left,0.401977062225,,,,,participant9,25,59.9225663401,M,trial,2017_May_27_1221,
,,0.1,"[2.25, 0]",/sounds/legit/right35.wav,,,,,3,18,123,5,,,,,,,,,,,,,,,right,0.486015081406,,,,,participant9,25,59.9225663401,M,trial,2017_May_27_1221,
,,0.23,"[2.25, 0]",/sounds/legit/right35.wav,,,,,3,19,124,6,,,,,,,,,,,,,,,right,0.301966905594,,,,,participant9,25,59.9225663401,M,trial,2017_May_27_1221,
,,0.49,"[4.5, 0]",/sounds/legit/right70.wav,,,,,3,20,125,13,,,,,,,,,,,,,,,right,0.402415037155,,,,,participant9,25,59.9225663401,M,trial,2017_May_27_1221,
,,0.49,"[-2.25, 0]",/sounds/legit/left35.wav,,,,,3,21,126,23,,,,,,,,,,,,,,,left,0.3843729496,,,,,participant9,25,59.9225663401,M,trial,2017_May_27_1221,
,,0.1,"[6.75, 0]",/sounds/legit/right100.wav,,,,,3,22,127,15,,,,,,,,,,,,,,,right,0.218471050262,,,,,participant9,25,59.9225663401,M,trial,2017_May_27_1221,
,,0.36,"[4.5, 0]",/sounds/legit/right70.wav,,,,,3,23,128,12,,,,,,,,,,,,,,,right,0.65265917778,,,,,participant9,25,59.9225663401,M,trial,2017_May_27_1221,
,,0.1,"[4.5, 0]",/sounds/legit/right70.wav,,,,,3,24,129,10,,,,,,,,,,,,,,,right,0.285290002823,,,,,participant9,25,59.9225663401,M,trial,2017_May_27_1221,
,,0.49,"[-4.5, 0]",/sounds/legit/left70.wav,,,,,3,25,130,28,,,,,,,,,,,,,,,left,0.167603969574,,,,,participant9,25,59.9225663401,M,trial,2017_May_27_1221,
,,0.23,"[0, 0]",/sounds/legit/equal.wav,,,,,3,26,131,1,,,,,,,,,,,,,,,left,0.318959951401,,,,,participant9,25,59.9225663401,M,trial,2017_May_27_1221,
,,0.62,"[0, 0]",/sounds/legit/equal.wav,,,,,3,27,132,4,,,,,,,,,,,,,,,left,0.502239942551,,,,,participant9,25,59.9225663401,M,trial,2017_May_27_1221,
,,0.62,"[-4.5, 0]",/sounds/legit/left70.wav,,,,,3,28,133,29,,,,,,,,,,,,,,,left,0.235240936279,,,,,participant9,25,59.9225663401,M,trial,2017_May_27_1221,
,,0.1,"[-2.25, 0]",/sounds/legit/left35.wav,,,,,3,29,134,20,,,,,,,,,,,,,,,left,0.535806894302,,,,,participant9,25,59.9225663401,M,trial,2017_May_27_1221,
,,0.23,"[6.75, 0]",/sounds/legit/right100.wav,,,,,3,30,135,16,,,,,,,,,,,,,,,right,0.268471002579,,,,,participant9,25,59.9225663401,M,trial,2017_May_27_1221,
,,0.49,"[0, 0]",/sounds/legit/equal.wav,,,,,3,31,136,3,,,,,,,,,,,,,,,left,0.318745851517,,,,,participant9,25,59.9225663401,M,trial,2017_May_27_1221,
,,0.36,"[-4.5, 0]",/sounds/legit/left70.wav,,,,,3,32,137,27,,,,,,,,,,,,,,,left,0.118120193481,,,,,participant9,25,59.9225663401,M,trial,2017_May_27_1221,
,,0.1,"[-6.75, 0]",/sounds/legit/left100.wav,,,,,3,33,138,30,,,,,,,,,,,,,,,left,0.318701982498,,,,,participant9,25,59.9225663401,M,trial,2017_May_27_1221,
,,0.36,"[0, 0]",/sounds/legit/equal.wav,,,,,3,34,139,2,,,,,,,,,,,,,,,left,0.986893892288,,,,,participant9,25,59.9225663401,M,trial,2017_May_27_1221,
,,0.36,"[0, 0]",/sounds/legit/equal.wav,,,,,4,0,140,2,,,,,,,,,,,,,,,left,0.452275037766,,,,,participant9,25,59.9225663401,M,trial,2017_May_27_1221,
,,0.23,"[-2.25, 0]",/sounds/legit/left35.wav,,,,,4,1,141,21,,,,,,,,,,,,,,,left,0.335458040237,,,,,participant9,25,59.9225663401,M,trial,2017_May_27_1221,
,,0.1,"[4.5, 0]",/sounds/legit/right70.wav,,,,,4,2,142,10,,,,,,,,,,,,,,,right,0.302073001862,,,,,participant9,25,59.9225663401,M,trial,2017_May_27_1221,
,,0.1,"[0, 0]",/sounds/legit/equal.wav,,,,,4,3,143,0,,,,,,,,,,,,,,,left,0.402328968048,,,,,participant9,25,59.9225663401,M,trial,2017_May_27_1221,
,,0.62,"[-4.5, 0]",/sounds/legit/left70.wav,,,,,4,4,144,29,,,,,,,,,,,,,,,left,0.586030006409,,,,,participant9,25,59.9225663401,M,trial,2017_May_27_1221,
,,0.23,"[2.25, 0]",/sounds/legit/right35.wav,,,,,4,5,145,6,,,,,,,,,,,,,,,right,0.30224609375,,,,,participant9,25,59.9225663401,M,trial,2017_May_27_1221,
,,0.62,"[2.25, 0]",/sounds/legit/right35.wav,,,,,4,6,146,9,,,,,,,,,,,,,,,right,0.535931110382,,,,,participant9,25,59.9225663401,M,trial,2017_May_27_1221,
,,0.62,"[-6.75, 0]",/sounds/legit/left100.wav,,,,,4,7,147,34,,,,,,,,,,,,,,,left,0.335417985916,,,,,participant9,25,59.9225663401,M,trial,2017_May_27_1221,
,,0.49,"[6.75, 0]",/sounds/legit/right100.wav,,,,,4,8,148,18,,,,,,,,,,,,,,,right,0.235259056091,,,,,participant9,25,59.9225663401,M,trial,2017_May_27_1221,
,,0.36,"[-4.5, 0]",/sounds/legit/left70.wav,,,,,4,9,149,27,,,,,,,,,,,,,,,left,0.0681431293488,,,,,participant9,25,59.9225663401,M,trial,2017_May_27_1221,
,,0.23,"[4.5, 0]",/sounds/legit/right70.wav,,,,,4,10,150,11,,,,,,,,,,,,,,,right,0.970250844955,,,,,participant9,25,59.9225663401,M,trial,2017_May_27_1221,
,,0.36,"[4.5, 0]",/sounds/legit/right70.wav,,,,,4,11,151,12,,,,,,,,,,,,,,,right,0.268666028976,,,,,participant9,25,59.9225663401,M,trial,2017_May_27_1221,
,,0.49,"[0, 0]",/sounds/legit/equal.wav,,,,,4,12,152,3,,,,,,,,,,,,,,,left,0.702883958817,,,,,participant9,25,59.9225663401,M,trial,2017_May_27_1221,
,,0.62,"[0, 0]",/sounds/legit/equal.wav,,,,,4,13,153,4,,,,,,,,,,,,,,,left,0.502353191376,,,,,participant9,25,59.9225663401,M,trial,2017_May_27_1221,
,,0.36,"[6.75, 0]",/sounds/legit/right100.wav,,,,,4,14,154,17,,,,,,,,,,,,,,,right,0.33533000946,,,,,participant9,25,59.9225663401,M,trial,2017_May_27_1221,
,,0.36,"[-6.75, 0]",/sounds/legit/left100.wav,,,,,4,15,155,32,,,,,,,,,,,,,,,left,0.0849859714508,,,,,participant9,25,59.9225663401,M,trial,2017_May_27_1221,
,,0.62,"[-2.25, 0]",/sounds/legit/left35.wav,,,,,4,16,156,24,,,,,,,,,,,,,,,left,0.301993846893,,,,,participant9,25,59.9225663401,M,trial,2017_May_27_1221,
,,0.23,"[-4.5, 0]",/sounds/legit/left70.wav,,,,,4,17,157,26,,,,,,,,,,,,,,,left,0.268614053726,,,,,participant9,25,59.9225663401,M,trial,2017_May_27_1221,
,,0.36,"[2.25, 0]",/sounds/legit/right35.wav,,,,,4,18,158,7,,,,,,,,,,,,,,,right,0.118306875229,,,,,participant9,25,59.9225663401,M,trial,2017_May_27_1221,
,,0.62,"[4.5, 0]",/sounds/legit/right70.wav,,,,,4,19,159,14,,,,,,,,,,,,,,,right,0.435693025589,,,,,participant9,25,59.9225663401,M,trial,2017_May_27_1221,
,,0.1,"[-4.5, 0]",/sounds/legit/left70.wav,,,,,4,20,160,25,,,,,,,,,,,,,,,left,0.168126106262,,,,,participant9,25,59.9225663401,M,trial,2017_May_27_1221,
,,0.36,"[-2.25, 0]",/sounds/legit/left35.wav,,,,,4,21,161,22,,,,,,,,,,,,,,,left,0.0682468414307,,,,,participant9,25,59.9225663401,M,trial,2017_May_27_1221,
,,0.1,"[-6.75, 0]",/sounds/legit/left100.wav,,,,,4,22,162,30,,,,,,,,,,,,,,,left,0.168227910995,,,,,participant9,25,59.9225663401,M,trial,2017_May_27_1221,
,,0.49,"[4.5, 0]",/sounds/legit/right70.wav,,,,,4,23,163,13,,,,,,,,,,,,,,,right,0.302065134048,,,,,participant9,25,59.9225663401,M,trial,2017_May_27_1221,
,,0.23,"[6.75, 0]",/sounds/legit/right100.wav,,,,,4,24,164,16,,,,,,,,,,,,,,,right,0.0847909450531,,,,,participant9,25,59.9225663401,M,trial,2017_May_27_1221,
,,0.23,"[0, 0]",/sounds/legit/equal.wav,,,,,4,25,165,1,,,,,,,,,,,,,,,left,0.368756055832,,,,,participant9,25,59.9225663401,M,trial,2017_May_27_1221,
,,0.49,"[2.25, 0]",/sounds/legit/right35.wav,,,,,4,26,166,8,,,,,,,,,,,,,,,right,0.352252960205,,,,,participant9,25,59.9225663401,M,trial,2017_May_27_1221,
,,0.1,"[6.75, 0]",/sounds/legit/right100.wav,,,,,4,27,167,15,,,,,,,,,,,,,,,right,0.201840162277,,,,,participant9,25,59.9225663401,M,trial,2017_May_27_1221,
,,0.23,"[-6.75, 0]",/sounds/legit/left100.wav,,,,,4,28,168,31,,,,,,,,,,,,,,,left,0.0345408916473,,,,,participant9,25,59.9225663401,M,trial,2017_May_27_1221,
,,0.49,"[-6.75, 0]",/sounds/legit/left100.wav,,,,,4,29,169,33,,,,,,,,,,,,,,,left,0.118303060532,,,,,participant9,25,59.9225663401,M,trial,2017_May_27_1221,
,,0.62,"[6.75, 0]",/sounds/legit/right100.wav,,,,,4,30,170,19,,,,,,,,,,,,,,,right,0.201654911041,,,,,participant9,25,59.9225663401,M,trial,2017_May_27_1221,
,,0.49,"[-2.25, 0]",/sounds/legit/left35.wav,,,,,4,31,171,23,,,,,,,,,,,,,,,left,0.18535399437,,,,,participant9,25,59.9225663401,M,trial,2017_May_27_1221,
,,0.49,"[-4.5, 0]",/sounds/legit/left70.wav,,,,,4,32,172,28,,,,,,,,,,,,,,,left,0.101600885391,,,,,participant9,25,59.9225663401,M,trial,2017_May_27_1221,
,,0.1,"[-2.25, 0]",/sounds/legit/left35.wav,,,,,4,33,173,20,,,,,,,,,,,,,,,left,0.920173883438,,,,,participant9,25,59.9225663401,M,trial,2017_May_27_1221,
,,0.1,"[2.25, 0]",/sounds/legit/right35.wav,,,,,4,34,174,5,,,,,,,,,,,,,,,right,1.1371679306,,,,,participant9,25,59.9225663401,M,trial,2017_May_27_1221,
,,0.36,"[2.25, 0]",/sounds/legit/right35.wav,,,,,5,0,175,7,,,,,,,,,,,,,,,right,0.135014057159,,,,,participant9,25,59.9225663401,M,trial,2017_May_27_1221,
,,0.49,"[2.25, 0]",/sounds/legit/right35.wav,,,,,5,1,176,8,,,,,,,,,,,,,,,right,0.0181088447571,,,,,participant9,25,59.9225663401,M,trial,2017_May_27_1221,
,,0.49,"[0, 0]",/sounds/legit/equal.wav,,,,,5,2,177,3,,,,,,,,,,,,,,,left,0.836197853088,,,,,participant9,25,59.9225663401,M,trial,2017_May_27_1221,
,,0.1,"[0, 0]",/sounds/legit/equal.wav,,,,,5,3,178,0,,,,,,,,,,,,,,,left,0.452373981476,,,,,participant9,25,59.9225663401,M,trial,2017_May_27_1221,
,,0.49,"[4.5, 0]",/sounds/legit/right70.wav,,,,,5,4,179,13,,,,,,,,,,,,,,,right,0.0680961608887,,,,,participant9,25,59.9225663401,M,trial,2017_May_27_1221,
,,0.62,"[-6.75, 0]",/sounds/legit/left100.wav,,,,,5,5,180,34,,,,,,,,,,,,,,,left,0.268639087677,,,,,participant9,25,59.9225663401,M,trial,2017_May_27_1221,
,,0.23,"[0, 0]",/sounds/legit/equal.wav,,,,,5,6,181,1,,,,,,,,,,,,,,,left,0.252078056335,,,,,participant9,25,59.9225663401,M,trial,2017_May_27_1221,
,,0.49,"[-6.75, 0]",/sounds/legit/left100.wav,,,,,5,7,182,33,,,,,,,,,,,,,,,left,0.301756858826,,,,,participant9,25,59.9225663401,M,trial,2017_May_27_1221,
,,0.62,"[-2.25, 0]",/sounds/legit/left35.wav,,,,,5,8,183,24,,,,,,,,,,,,,,,left,0.30188703537,,,,,participant9,25,59.9225663401,M,trial,2017_May_27_1221,
,,0.62,"[2.25, 0]",/sounds/legit/right35.wav,,,,,5,9,184,9,,,,,,,,,,,,,,,right,0.502264022827,,,,,participant9,25,59.9225663401,M,trial,2017_May_27_1221,
,,0.1,"[-6.75, 0]",/sounds/legit/left100.wav,,,,,5,10,185,30,,,,,,,,,,,,,,,left,0.285454034805,,,,,participant9,25,59.9225663401,M,trial,2017_May_27_1221,
,,0.1,"[6.75, 0]",/sounds/legit/right100.wav,,,,,5,11,186,15,,,,,,,,,,,,,,,right,0.018012046814,,,,,participant9,25,59.9225663401,M,trial,2017_May_27_1221,
,,0.23,"[2.25, 0]",/sounds/legit/right35.wav,,,,,5,12,187,6,,,,,,,,,,,,,,,right,0.920006036758,,,,,participant9,25,59.9225663401,M,trial,2017_May_27_1221,
,,0.36,"[-6.75, 0]",/sounds/legit/left100.wav,,,,,5,13,188,32,,,,,,,,,,,,,,,left,0.252059936523,,,,,participant9,25,59.9225663401,M,trial,2017_May_27_1221,
,,0.49,"[6.75, 0]",/sounds/legit/right100.wav,,,,,5,14,189,18,,,,,,,,,,,,,,,right,0.0514349937439,,,,,participant9,25,59.9225663401,M,trial,2017_May_27_1221,
,,0.1,"[4.5, 0]",/sounds/legit/right70.wav,,,,,5,15,190,10,,,,,,,,,,,,,,,right,0.0847959518433,,,,,participant9,25,59.9225663401,M,trial,2017_May_27_1221,
,,0.36,"[-4.5, 0]",/sounds/legit/left70.wav,,,,,5,16,191,27,,,,,,,,,,,,,,,left,0.251919984818,,,,,participant9,25,59.9225663401,M,trial,2017_May_27_1221,
,,0.62,"[6.75, 0]",/sounds/legit/right100.wav,,,,,5,17,192,19,,,,,,,,,,,,,,,right,0.301977872849,,,,,participant9,25,59.9225663401,M,trial,2017_May_27_1221,
,,0.1,"[-2.25, 0]",/sounds/legit/left35.wav,,,,,5,18,193,20,,,,,,,,,,,,,,,left,0.285566091537,,,,,participant9,25,59.9225663401,M,trial,2017_May_27_1221,
,,0.23,"[-2.25, 0]",/sounds/legit/left35.wav,,,,,5,19,194,21,,,,,,,,,,,,,,,left,0.0345330238342,,,,,participant9,25,59.9225663401,M,trial,2017_May_27_1221,
,,0.36,"[-2.25, 0]",/sounds/legit/left35.wav,,,,,5,20,195,22,,,,,,,,,,,,,,,left,0.0514280796051,,,,,participant9,25,59.9225663401,M,trial,2017_May_27_1221,
,,0.49,"[-2.25, 0]",/sounds/legit/left35.wav,,,,,5,21,196,23,,,,,,,,,,,,,,,left,0.285367965698,,,,,participant9,25,59.9225663401,M,trial,2017_May_27_1221,
,,0.36,"[4.5, 0]",/sounds/legit/right70.wav,,,,,5,22,197,12,,,,,,,,,,,,,,,right,0.135194063187,,,,,participant9,25,59.9225663401,M,trial,2017_May_27_1221,
,,0.36,"[0, 0]",/sounds/legit/equal.wav,,,,,5,23,198,2,,,,,,,,,,,,,,,left,0.602516174316,,,,,participant9,25,59.9225663401,M,trial,2017_May_27_1221,
,,0.23,"[6.75, 0]",/sounds/legit/right100.wav,,,,,5,24,199,16,,,,,,,,,,,,,,,right,0.201663017273,,,,,participant9,25,59.9225663401,M,trial,2017_May_27_1221,
,,0.62,"[-4.5, 0]",/sounds/legit/left70.wav,,,,,5,25,200,29,,,,,,,,,,,,,,,left,0.235210180283,,,,,participant9,25,59.9225663401,M,trial,2017_May_27_1221,
,,0.62,"[4.5, 0]",/sounds/legit/right70.wav,,,,,5,26,201,14,,,,,,,,,,,,,,,right,0.352144956589,,,,,participant9,25,59.9225663401,M,trial,2017_May_27_1221,
,,0.23,"[4.5, 0]",/sounds/legit/right70.wav,,,,,5,27,202,11,,,,,,,,,,,,,,,right,0.235266923904,,,,,participant9,25,59.9225663401,M,trial,2017_May_27_1221,
,,0.1,"[-4.5, 0]",/sounds/legit/left70.wav,,,,,5,28,203,25,,,,,,,,,,,,,,,left,0.184154033661,,,,,participant9,25,59.9225663401,M,trial,2017_May_27_1221,
,,0.62,"[0, 0]",/sounds/legit/equal.wav,,,,,5,29,204,4,,,,,,,,,,,,,,,right,0.318895816803,,,,,participant9,25,59.9225663401,M,trial,2017_May_27_1221,
,,0.49,"[-4.5, 0]",/sounds/legit/left70.wav,,,,,5,30,205,28,,,,,,,,,,,,,,,left,0.268620014191,,,,,participant9,25,59.9225663401,M,trial,2017_May_27_1221,
,,0.23,"[-4.5, 0]",/sounds/legit/left70.wav,,,,,5,31,206,26,,,,,,,,,,,,,,,left,0.0843939781189,,,,,participant9,25,59.9225663401,M,trial,2017_May_27_1221,
,,0.36,"[6.75, 0]",/sounds/legit/right100.wav,,,,,5,32,207,17,,,,,,,,,,,,,,,right,0.0348379611969,,,,,participant9,25,59.9225663401,M,trial,2017_May_27_1221,
,,0.23,"[-6.75, 0]",/sounds/legit/left100.wav,,,,,5,33,208,31,,,,,,,,,,,,,,,left,0.118293046951,,,,,participant9,25,59.9225663401,M,trial,2017_May_27_1221,
,,0.1,"[2.25, 0]",/sounds/legit/right35.wav,,,,,5,34,209,5,,,,,,,,,,,,,,,right,0.017954826355,,,,,participant9,25,59.9225663401,M,trial,2017_May_27_1221,
,,0.62,"[0, 0]",/sounds/legit/equal.wav,,,,,6,0,210,4,,,,,,,,,,,,,,,left,0.786366939545,,,,,participant9,25,59.9225663401,M,trial,2017_May_27_1221,
,,0.36,"[-6.75, 0]",/sounds/legit/left100.wav,,,,,6,1,211,32,,,,,,,,,,,,,,,left,0.0514450073242,,,,,participant9,25,59.9225663401,M,trial,2017_May_27_1221,
,,0.49,"[-2.25, 0]",/sounds/legit/left35.wav,,,,,6,2,212,23,,,,,,,,,,,,,,,left,0.035031080246,,,,,participant9,25,59.9225663401,M,trial,2017_May_27_1221,
,,0.23,"[2.25, 0]",/sounds/legit/right35.wav,,,,,6,3,213,6,,,,,,,,,,,,,,,right,0.919867992401,,,,,participant9,25,59.9225663401,M,trial,2017_May_27_1221,
,,0.62,"[-2.25, 0]",/sounds/legit/left35.wav,,,,,6,4,214,24,,,,,,,,,,,,,,,left,0.218560934067,,,,,participant9,25,59.9225663401,M,trial,2017_May_27_1221,
,,0.49,"[0, 0]",/sounds/legit/equal.wav,,,,,6,5,215,3,,,,,,,,,,,,,,,left,0.45246219635,,,,,participant9,25,59.9225663401,M,trial,2017_May_27_1221,
,,0.36,"[-4.5, 0]",/sounds/legit/left70.wav,,,,,6,6,216,27,,,,,,,,,,,,,,,left,0.00144100189209,,,,,participant9,25,59.9225663401,M,trial,2017_May_27_1221,
,,0.1,"[-4.5, 0]",/sounds/legit/left70.wav,,,,,6,7,217,25,,,,,,,,,,,,,,,left,0.769443035126,,,,,participant9,25,59.9225663401,M,trial,2017_May_27_1221,
,,0.49,"[2.25, 0]",/sounds/legit/right35.wav,,,,,6,8,218,8,,,,,,,,,,,,,,,right,1.03700709343,,,,,participant9,25,59.9225663401,M,trial,2017_May_27_1221,
,,0.49,"[6.75, 0]",/sounds/legit/right100.wav,,,,,6,9,219,18,,,,,,,,,,,,,,,right,0.151860952377,,,,,participant9,25,59.9225663401,M,trial,2017_May_27_1221,
,,0.49,"[4.5, 0]",/sounds/legit/right70.wav,,,,,6,10,220,13,,,,,,,,,,,,,,,right,0.65260219574,,,,,participant9,25,59.9225663401,M,trial,2017_May_27_1221,
,,0.23,"[6.75, 0]",/sounds/legit/right100.wav,,,,,6,11,221,16,,,,,,,,,,,,,,,right,0.185052156448,,,,,participant9,25,59.9225663401,M,trial,2017_May_27_1221,
,,0.23,"[-4.5, 0]",/sounds/legit/left70.wav,,,,,6,12,222,26,,,,,,,,,,,,,,,left,0.552646875381,,,,,participant9,25,59.9225663401,M,trial,2017_May_27_1221,
,,0.1,"[0, 0]",/sounds/legit/equal.wav,,,,,6,13,223,0,,,,,,,,,,,,,,,left,0.602669000626,,,,,participant9,25,59.9225663401,M,trial,2017_May_27_1221,
,,0.23,"[-2.25, 0]",/sounds/legit/left35.wav,,,,,6,14,224,21,,,,,,,,,,,,,,,left,0.284334897995,,,,,participant9,25,59.9225663401,M,trial,2017_May_27_1221,
,,0.1,"[-2.25, 0]",/sounds/legit/left35.wav,,,,,6,15,225,20,,,,,,,,,,,,,,,left,0.184851884842,,,,,participant9,25,59.9225663401,M,trial,2017_May_27_1221,
,,0.62,"[4.5, 0]",/sounds/legit/right70.wav,,,,,6,16,226,14,,,,,,,,,,,,,,,right,0.218477010727,,,,,participant9,25,59.9225663401,M,trial,2017_May_27_1221,
,,0.36,"[6.75, 0]",/sounds/legit/right100.wav,,,,,6,17,227,17,,,,,,,,,,,,,,,right,0.151745080948,,,,,participant9,25,59.9225663401,M,trial,2017_May_27_1221,
,,0.62,"[6.75, 0]",/sounds/legit/right100.wav,,,,,6,18,228,19,,,,,,,,,,,,,,,right,0.335692882538,,,,,participant9,25,59.9225663401,M,trial,2017_May_27_1221,
,,0.49,"[-6.75, 0]",/sounds/legit/left100.wav,,,,,6,19,229,33,,,,,,,,,,,,,,,left,0.201925992966,,,,,participant9,25,59.9225663401,M,trial,2017_May_27_1221,
,,0.62,"[2.25, 0]",/sounds/legit/right35.wav,,,,,6,20,230,9,,,,,,,,,,,,,,,right,0.318700790405,,,,,participant9,25,59.9225663401,M,trial,2017_May_27_1221,
,,0.36,"[0, 0]",/sounds/legit/equal.wav,,,,,6,21,231,2,,,,,,,,,,,,,,,left,0.452435970306,,,,,participant9,25,59.9225663401,M,trial,2017_May_27_1221,
,,0.1,"[-6.75, 0]",/sounds/legit/left100.wav,,,,,6,22,232,30,,,,,,,,,,,,,,,left,0.26913189888,,,,,participant9,25,59.9225663401,M,trial,2017_May_27_1221,
,,0.1,"[2.25, 0]",/sounds/legit/right35.wav,,,,,6,23,233,5,,,,,,,,,,,,,,,right,0.31878900528,,,,,participant9,25,59.9225663401,M,trial,2017_May_27_1221,
,,0.23,"[0, 0]",/sounds/legit/equal.wav,,,,,6,24,234,1,,,,,,,,,,,,,,,left,0.301846981049,,,,,participant9,25,59.9225663401,M,trial,2017_May_27_1221,
,,0.49,"[-4.5, 0]",/sounds/legit/left70.wav,,,,,6,25,235,28,,,,,,,,,,,,,,,left,0.368722915649,,,,,participant9,25,59.9225663401,M,trial,2017_May_27_1221,
,,0.62,"[-4.5, 0]",/sounds/legit/left70.wav,,,,,6,26,236,29,,,,,,,,,,,,,,,left,0.402549028397,,,,,participant9,25,59.9225663401,M,trial,2017_May_27_1221,
,,0.1,"[6.75, 0]",/sounds/legit/right100.wav,,,,,6,27,237,15,,,,,,,,,,,,,,,right,0.302201032639,,,,,participant9,25,59.9225663401,M,trial,2017_May_27_1221,
,,0.36,"[-2.25, 0]",/sounds/legit/left35.wav,,,,,6,28,238,22,,,,,,,,,,,,,,,left,0.302124023438,,,,,participant9,25,59.9225663401,M,trial,2017_May_27_1221,
,,0.62,"[-6.75, 0]",/sounds/legit/left100.wav,,,,,6,29,239,34,,,,,,,,,,,,,,,left,0.468055963516,,,,,participant9,25,59.9225663401,M,trial,2017_May_27_1221,
,,0.36,"[2.25, 0]",/sounds/legit/right35.wav,,,,,6,30,240,7,,,,,,,,,,,,,,,right,0.469058036804,,,,,participant9,25,59.9225663401,M,trial,2017_May_27_1221,
,,0.23,"[4.5, 0]",/sounds/legit/right70.wav,,,,,6,31,241,11,,,,,,,,,,,,,,,right,0.569193840027,,,,,participant9,25,59.9225663401,M,trial,2017_May_27_1221,
,,0.1,"[4.5, 0]",/sounds/legit/right70.wav,,,,,6,32,242,10,,,,,,,,,,,,,,,right,0.335196971893,,,,,participant9,25,59.9225663401,M,trial,2017_May_27_1221,
,,0.23,"[-6.75, 0]",/sounds/legit/left100.wav,,,,,6,33,243,31,,,,,,,,,,,,,,,left,0.185138940811,,,,,participant9,25,59.9225663401,M,trial,2017_May_27_1221,
,,0.36,"[4.5, 0]",/sounds/legit/right70.wav,,,,,6,34,244,12,,,,,,,,,,,,,,,right,0.16836810112,,,,,participant9,25,59.9225663401,M,trial,2017_May_27_1221,
,,0.23,"[6.75, 0]",/sounds/legit/right100.wav,,,,,7,0,245,16,,,,,,,,,,,,,,,right,0.185270786285,,,,,participant9,25,59.9225663401,M,trial,2017_May_27_1221,
,,0.49,"[6.75, 0]",/sounds/legit/right100.wav,,,,,7,1,246,18,,,,,,,,,,,,,,,right,0.201748132706,,,,,participant9,25,59.9225663401,M,trial,2017_May_27_1221,
,,0.23,"[2.25, 0]",/sounds/legit/right35.wav,,,,,7,2,247,6,,,,,,,,,,,,,,,right,2.2060880661,,,,,participant9,25,59.9225663401,M,trial,2017_May_27_1221,
,,0.23,"[0, 0]",/sounds/legit/equal.wav,,,,,7,3,248,1,,,,,,,,,,,,,,,left,0.251862049103,,,,,participant9,25,59.9225663401,M,trial,2017_May_27_1221,
,,0.49,"[-6.75, 0]",/sounds/legit/left100.wav,,,,,7,4,249,33,,,,,,,,,,,,,,,left,0.267633914948,,,,,participant9,25,59.9225663401,M,trial,2017_May_27_1221,
,,0.62,"[-6.75, 0]",/sounds/legit/left100.wav,,,,,7,5,250,34,,,,,,,,,,,,,,,left,0.251736164093,,,,,participant9,25,59.9225663401,M,trial,2017_May_27_1221,
,,0.36,"[4.5, 0]",/sounds/legit/right70.wav,,,,,7,6,251,12,,,,,,,,,,,,,,,right,0.118516921997,,,,,participant9,25,59.9225663401,M,trial,2017_May_27_1221,
,,0.62,"[-4.5, 0]",/sounds/legit/left70.wav,,,,,7,7,252,29,,,,,,,,,,,,,,,left,0.20174908638,,,,,participant9,25,59.9225663401,M,trial,2017_May_27_1221,
,,0.36,"[-2.25, 0]",/sounds/legit/left35.wav,,,,,7,8,253,22,,,,,,,,,,,,,,,left,0.218429088593,,,,,participant9,25,59.9225663401,M,trial,2017_May_27_1221,
,,0.49,"[4.5, 0]",/sounds/legit/right70.wav,,,,,7,9,254,13,,,,,,,,,,,,,,,right,0.335337877274,,,,,participant9,25,59.9225663401,M,trial,2017_May_27_1221,
,,0.62,"[0, 0]",/sounds/legit/equal.wav,,,,,7,10,255,4,,,,,,,,,,,,,,,left,0.268509864807,,,,,participant9,25,59.9225663401,M,trial,2017_May_27_1221,
,,0.1,"[-6.75, 0]",/sounds/legit/left100.wav,,,,,7,11,256,30,,,,,,,,,,,,,,,left,0.201831102371,,,,,participant9,25,59.9225663401,M,trial,2017_May_27_1221,
,,0.36,"[2.25, 0]",/sounds/legit/right35.wav,,,,,7,12,257,7,,,,,,,,,,,,,,,right,0.0348980426788,,,,,participant9,25,59.9225663401,M,trial,2017_May_27_1221,
,,0.49,"[-4.5, 0]",/sounds/legit/left70.wav,,,,,7,13,258,28,,,,,,,,,,,,,,,left,0.26873087883,,,,,participant9,25,59.9225663401,M,trial,2017_May_27_1221,
,,0.1,"[4.5, 0]",/sounds/legit/right70.wav,,,,,7,14,259,10,,,,,,,,,,,,,,,right,0.235355854034,,,,,participant9,25,59.9225663401,M,trial,2017_May_27_1221,
,,0.62,"[4.5, 0]",/sounds/legit/right70.wav,,,,,7,15,260,14,,,,,,,,,,,,,,,right,0.084755897522,,,,,participant9,25,59.9225663401,M,trial,2017_May_27_1221,
,,0.62,"[2.25, 0]",/sounds/legit/right35.wav,,,,,7,16,261,9,,,,,,,,,,,,,,,right,0.234304904938,,,,,participant9,25,59.9225663401,M,trial,2017_May_27_1221,
,,0.1,"[0, 0]",/sounds/legit/equal.wav,,,,,7,17,262,0,,,,,,,,,,,,,,,left,0.45245885849,,,,,participant9,25,59.9225663401,M,trial,2017_May_27_1221,
,,0.49,"[0, 0]",/sounds/legit/equal.wav,,,,,7,18,263,3,,,,,,,,,,,,,,,left,0.385528087616,,,,,participant9,25,59.9225663401,M,trial,2017_May_27_1221,
,,0.1,"[-4.5, 0]",/sounds/legit/left70.wav,,,,,7,19,264,25,,,,,,,,,,,,,,,left,0.235170125961,,,,,participant9,25,59.9225663401,M,trial,2017_May_27_1221,
,,0.1,"[2.25, 0]",/sounds/legit/right35.wav,,,,,7,20,265,5,,,,,,,,,,,,,,,right,0.0681719779968,,,,,participant9,25,59.9225663401,M,trial,2017_May_27_1221,
,,0.23,"[-4.5, 0]",/sounds/legit/left70.wav,,,,,7,21,266,26,,,,,,,,,,,,,,,left,1.07032585144,,,,,participant9,25,59.9225663401,M,trial,2017_May_27_1221,
,,0.23,"[-6.75, 0]",/sounds/legit/left100.wav,,,,,7,22,267,31,,,,,,,,,,,,,,,left,0.218240976334,,,,,participant9,25,59.9225663401,M,trial,2017_May_27_1221,
,,0.23,"[-2.25, 0]",/sounds/legit/left35.wav,,,,,7,23,268,21,,,,,,,,,,,,,,,left,0.652539014816,,,,,participant9,25,59.9225663401,M,trial,2017_May_27_1221,
,,0.36,"[0, 0]",/sounds/legit/equal.wav,,,,,7,24,269,2,,,,,,,,,,,,,,,left,0.268543958664,,,,,participant9,25,59.9225663401,M,trial,2017_May_27_1221,
,,0.23,"[4.5, 0]",/sounds/legit/right70.wav,,,,,7,25,270,11,,,,,,,,,,,,,,,right,0.084823846817,,,,,participant9,25,59.9225663401,M,trial,2017_May_27_1221,
,,0.62,"[6.75, 0]",/sounds/legit/right100.wav,,,,,7,26,271,19,,,,,,,,,,,,,,,right,0.235029935837,,,,,participant9,25,59.9225663401,M,trial,2017_May_27_1221,
,,0.62,"[-2.25, 0]",/sounds/legit/left35.wav,,,,,7,27,272,24,,,,,,,,,,,,,,,left,0.318901062012,,,,,participant9,25,59.9225663401,M,trial,2017_May_27_1221,
,,0.49,"[2.25, 0]",/sounds/legit/right35.wav,,,,,7,28,273,8,,,,,,,,,,,,,,,right,0.25187420845,,,,,participant9,25,59.9225663401,M,trial,2017_May_27_1221,
,,0.36,"[-4.5, 0]",/sounds/legit/left70.wav,,,,,7,29,274,27,,,,,,,,,,,,,,,left,0.251978874207,,,,,participant9,25,59.9225663401,M,trial,2017_May_27_1221,
,,0.1,"[-2.25, 0]",/sounds/legit/left35.wav,,,,,7,30,275,20,,,,,,,,,,,,,,,left,0.168581962585,,,,,participant9,25,59.9225663401,M,trial,2017_May_27_1221,
,,0.49,"[-2.25, 0]",/sounds/legit/left35.wav,,,,,7,31,276,23,,,,,,,,,,,,,,,left,0.10129404068,,,,,participant9,25,59.9225663401,M,trial,2017_May_27_1221,
,,0.36,"[6.75, 0]",/sounds/legit/right100.wav,,,,,7,32,277,17,,,,,,,,,,,,,,,right,0.167335033417,,,,,participant9,25,59.9225663401,M,trial,2017_May_27_1221,
,,0.36,"[-6.75, 0]",/sounds/legit/left100.wav,,,,,7,33,278,32,,,,,,,,,,,,,,,left,0.318513870239,,,,,participant9,25,59.9225663401,M,trial,2017_May_27_1221,
,,0.1,"[6.75, 0]",/sounds/legit/right100.wav,,,,,7,34,279,15,,,,,,,,,,,,,,,right,0.452166080475,,,,,participant9,25,59.9225663401,M,trial,2017_May_27_1221,
,,0.1,"[-4.5, 0]",/sounds/legit/left70.wav,,,,,8,0,280,25,,,,,,,,,,,,,,,left,0.36905503273,,,,,participant9,25,59.9225663401,M,trial,2017_May_27_1221,
,,0.1,"[6.75, 0]",/sounds/legit/right100.wav,,,,,8,1,281,15,,,,,,,,,,,,,,,right,0.30214214325,,,,,participant9,25,59.9225663401,M,trial,2017_May_27_1221,
,,0.1,"[-6.75, 0]",/sounds/legit/left100.wav,,,,,8,2,282,30,,,,,,,,,,,,,,,left,0.218647956848,,,,,participant9,25,59.9225663401,M,trial,2017_May_27_1221,
,,0.23,"[-4.5, 0]",/sounds/legit/left70.wav,,,,,8,3,283,26,,,,,,,,,,,,,,,left,1.37103390694,,,,,participant9,25,59.9225663401,M,trial,2017_May_27_1221,
,,0.1,"[-2.25, 0]",/sounds/legit/left35.wav,,,,,8,4,284,20,,,,,,,,,,,,,,,left,0.251773118973,,,,,participant9,25,59.9225663401,M,trial,2017_May_27_1221,
,,0.62,"[6.75, 0]",/sounds/legit/right100.wav,,,,,8,5,285,19,,,,,,,,,,,,,,,right,0.133770942688,,,,,participant9,25,59.9225663401,M,trial,2017_May_27_1221,
,,0.49,"[-4.5, 0]",/sounds/legit/left70.wav,,,,,8,6,286,28,,,,,,,,,,,,,,,left,1.52133107185,,,,,participant9,25,59.9225663401,M,trial,2017_May_27_1221,
,,0.23,"[-6.75, 0]",/sounds/legit/left100.wav,,,,,8,7,287,31,,,,,,,,,,,,,,,left,0.135113954544,,,,,participant9,25,59.9225663401,M,trial,2017_May_27_1221,
,,0.49,"[-2.25, 0]",/sounds/legit/left35.wav,,,,,8,8,288,23,,,,,,,,,,,,,,,left,0.235023975372,,,,,participant9,25,59.9225663401,M,trial,2017_May_27_1221,
,,0.62,"[0, 0]",/sounds/legit/equal.wav,,,,,8,9,289,4,,,,,,,,,,,,,,,left,0.48578619957,,,,,participant9,25,59.9225663401,M,trial,2017_May_27_1221,
,,0.23,"[0, 0]",/sounds/legit/equal.wav,,,,,8,10,290,1,,,,,,,,,,,,,,,left,0.836645841599,,,,,participant9,25,59.9225663401,M,trial,2017_May_27_1221,
,,0.62,"[4.5, 0]",/sounds/legit/right70.wav,,,,,8,11,291,14,,,,,,,,,,,,,,,right,0.85293006897,,,,,participant9,25,59.9225663401,M,trial,2017_May_27_1221,
,,0.23,"[-2.25, 0]",/sounds/legit/left35.wav,,,,,8,12,292,21,,,,,,,,,,,,,,,left,0.151587963104,,,,,participant9,25,59.9225663401,M,trial,2017_May_27_1221,
,,0.1,"[0, 0]",/sounds/legit/equal.wav,,,,,8,13,293,0,,,,,,,,,,,,,,,left,0.335307121277,,,,,participant9,25,59.9225663401,M,trial,2017_May_27_1221,
,,0.49,"[6.75, 0]",/sounds/legit/right100.wav,,,,,8,14,294,18,,,,,,,,,,,,,,,right,0.235107898712,,,,,participant9,25,59.9225663401,M,trial,2017_May_27_1221,
,,0.49,"[2.25, 0]",/sounds/legit/right35.wav,,,,,8,15,295,8,,,,,,,,,,,,,,,right,0.485602140427,,,,,participant9,25,59.9225663401,M,trial,2017_May_27_1221,
,,0.62,"[2.25, 0]",/sounds/legit/right35.wav,,,,,8,16,296,9,,,,,,,,,,,,,,,right,0.419246912003,,,,,participant9,25,59.9225663401,M,trial,2017_May_27_1221,
,,0.1,"[2.25, 0]",/sounds/legit/right35.wav,,,,,8,17,297,5,,,,,,,,,,,,,,,right,0.251852035522,,,,,participant9,25,59.9225663401,M,trial,2017_May_27_1221,
,,0.36,"[4.5, 0]",/sounds/legit/right70.wav,,,,,8,18,298,12,,,,,,,,,,,,,,,right,0.302178144455,,,,,participant9,25,59.9225663401,M,trial,2017_May_27_1221,
,,0.36,"[0, 0]",/sounds/legit/equal.wav,,,,,8,19,299,2,,,,,,,,,,,,,,,left,0.402186870575,,,,,participant9,25,59.9225663401,M,trial,2017_May_27_1221,
,,0.49,"[-6.75, 0]",/sounds/legit/left100.wav,,,,,8,20,300,33,,,,,,,,,,,,,,,left,0.35201215744,,,,,participant9,25,59.9225663401,M,trial,2017_May_27_1221,
,,0.36,"[-4.5, 0]",/sounds/legit/left70.wav,,,,,8,21,301,27,,,,,,,,,,,,,,,left,0.21840596199,,,,,participant9,25,59.9225663401,M,trial,2017_May_27_1221,
,,0.36,"[-6.75, 0]",/sounds/legit/left100.wav,,,,,8,22,302,32,,,,,,,,,,,,,,,left,0.318656921387,,,,,participant9,25,59.9225663401,M,trial,2017_May_27_1221,
,,0.62,"[-4.5, 0]",/sounds/legit/left70.wav,,,,,8,23,303,29,,,,,,,,,,,,,,,left,0.302083015442,,,,,participant9,25,59.9225663401,M,trial,2017_May_27_1221,
,,0.1,"[4.5, 0]",/sounds/legit/right70.wav,,,,,8,24,304,10,,,,,,,,,,,,,,,right,0.318787097931,,,,,participant9,25,59.9225663401,M,trial,2017_May_27_1221,
,,0.49,"[4.5, 0]",/sounds/legit/right70.wav,,,,,8,25,305,13,,,,,,,,,,,,,,,right,0.0348439216614,,,,,participant9,25,59.9225663401,M,trial,2017_May_27_1221,
,,0.36,"[-2.25, 0]",/sounds/legit/left35.wav,,,,,8,26,306,22,,,,,,,,,,,,,,,left,0.0851101875305,,,,,participant9,25,59.9225663401,M,trial,2017_May_27_1221,
,,0.23,"[4.5, 0]",/sounds/legit/right70.wav,,,,,8,27,307,11,,,,,,,,,,,,,,,right,0.20189499855,,,,,participant9,25,59.9225663401,M,trial,2017_May_27_1221,
,,0.62,"[-2.25, 0]",/sounds/legit/left35.wav,,,,,8,28,308,24,,,,,,,,,,,,,,,left,0.151607036591,,,,,participant9,25,59.9225663401,M,trial,2017_May_27_1221,
,,0.36,"[2.25, 0]",/sounds/legit/right35.wav,,,,,8,29,309,7,,,,,,,,,,,,,,,right,0.168130874634,,,,,participant9,25,59.9225663401,M,trial,2017_May_27_1221,
,,0.49,"[0, 0]",/sounds/legit/equal.wav,,,,,8,30,310,3,,,,,,,,,,,,,,,left,1.10393500328,,,,,participant9,25,59.9225663401,M,trial,2017_May_27_1221,
,,0.23,"[6.75, 0]",/sounds/legit/right100.wav,,,,,8,31,311,16,,,,,,,,,,,,,,,right,0.0348160266876,,,,,participant9,25,59.9225663401,M,trial,2017_May_27_1221,
,,0.23,"[2.25, 0]",/sounds/legit/right35.wav,,,,,8,32,312,6,,,,,,,,,,,,,,,right,1.03697514534,,,,,participant9,25,59.9225663401,M,trial,2017_May_27_1221,
,,0.62,"[-6.75, 0]",/sounds/legit/left100.wav,,,,,8,33,313,34,,,,,,,,,,,,,,,left,0.318696022034,,,,,participant9,25,59.9225663401,M,trial,2017_May_27_1221,
,,0.36,"[6.75, 0]",/sounds/legit/right100.wav,,,,,8,34,314,17,,,,,,,,,,,,,,,right,0.101575136185,,,,,participant9,25,59.9225663401,M,trial,2017_May_27_1221,
,,0.36,"[2.25, 0]",/sounds/legit/right35.wav,,,,,9,0,315,7,,,,,,,,,,,,,,,right,0.0845098495483,,,,,participant9,25,59.9225663401,M,trial,2017_May_27_1221,
,,0.23,"[2.25, 0]",/sounds/legit/right35.wav,,,,,9,1,316,6,,,,,,,,,,,,,,,right,0.1018409729,,,,,participant9,25,59.9225663401,M,trial,2017_May_27_1221,
,,0.62,"[0, 0]",/sounds/legit/equal.wav,,,,,9,2,317,4,,,,,,,,,,,,,,,left,0.669420003891,,,,,participant9,25,59.9225663401,M,trial,2017_May_27_1221,
,,0.36,"[-2.25, 0]",/sounds/legit/left35.wav,,,,,9,3,318,22,,,,,,,,,,,,,,,left,0.352206945419,,,,,participant9,25,59.9225663401,M,trial,2017_May_27_1221,
,,0.1,"[4.5, 0]",/sounds/legit/right70.wav,,,,,9,4,319,10,,,,,,,,,,,,,,,right,0.218261957169,,,,,participant9,25,59.9225663401,M,trial,2017_May_27_1221,
,,0.62,"[-4.5, 0]",/sounds/legit/left70.wav,,,,,9,5,320,29,,,,,,,,,,,,,,,left,0.301998853683,,,,,participant9,25,59.9225663401,M,trial,2017_May_27_1221,
,,0.49,"[4.5, 0]",/sounds/legit/right70.wav,,,,,9,6,321,13,,,,,,,,,,,,,,,right,0.168264865875,,,,,participant9,25,59.9225663401,M,trial,2017_May_27_1221,
,,0.1,"[-4.5, 0]",/sounds/legit/left70.wav,,,,,9,7,322,25,,,,,,,,,,,,,,,left,1.67164921761,,,,,participant9,25,59.9225663401,M,trial,2017_May_27_1221,
,,0.49,"[0, 0]",/sounds/legit/equal.wav,,,,,9,8,323,3,,,,,,,,,,,,,,,left,0.251866102219,,,,,participant9,25,59.9225663401,M,trial,2017_May_27_1221,
,,0.49,"[-4.5, 0]",/sounds/legit/left70.wav,,,,,9,9,324,28,,,,,,,,,,,,,,,left,0.0513799190521,,,,,participant9,25,59.9225663401,M,trial,2017_May_27_1221,
,,0.23,"[-2.25, 0]",/sounds/legit/left35.wav,,,,,9,10,325,21,,,,,,,,,,,,,,,left,0.502542972565,,,,,participant9,25,59.9225663401,M,trial,2017_May_27_1221,
,,0.1,"[2.25, 0]",/sounds/legit/right35.wav,,,,,9,11,326,5,,,,,,,,,,,,,,,right,0.00145888328552,,,,,participant9,25,59.9225663401,M,trial,2017_May_27_1221,
,,0.1,"[-6.75, 0]",/sounds/legit/left100.wav,,,,,9,12,327,30,,,,,,,,,,,,,,,left,0.250949144363,,,,,participant9,25,59.9225663401,M,trial,2017_May_27_1221,
,,0.36,"[4.5, 0]",/sounds/legit/right70.wav,,,,,9,13,328,12,,,,,,,,,,,,,,,right,0.0681240558624,,,,,participant9,25,59.9225663401,M,trial,2017_May_27_1221,
,,0.1,"[6.75, 0]",/sounds/legit/right100.wav,,,,,9,14,329,15,,,,,,,,,,,,,,,right,0.0512630939484,,,,,participant9,25,59.9225663401,M,trial,2017_May_27_1221,
,,0.23,"[-6.75, 0]",/sounds/legit/left100.wav,,,,,9,15,330,31,,,,,,,,,,,,,,,left,0.90313911438,,,,,participant9,25,59.9225663401,M,trial,2017_May_27_1221,
,,0.36,"[6.75, 0]",/sounds/legit/right100.wav,,,,,9,16,331,17,,,,,,,,,,,,,,,right,0.201834917068,,,,,participant9,25,59.9225663401,M,trial,2017_May_27_1221,
,,0.49,"[-2.25, 0]",/sounds/legit/left35.wav,,,,,9,17,332,23,,,,,,,,,,,,,,,left,0.151540994644,,,,,participant9,25,59.9225663401,M,trial,2017_May_27_1221,
,,0.62,"[4.5, 0]",/sounds/legit/right70.wav,,,,,9,18,333,14,,,,,,,,,,,,,,,right,0.0681519508362,,,,,participant9,25,59.9225663401,M,trial,2017_May_27_1221,
,,0.62,"[6.75, 0]",/sounds/legit/right100.wav,,,,,9,19,334,19,,,,,,,,,,,,,,,right,0.118261814117,,,,,participant9,25,59.9225663401,M,trial,2017_May_27_1221,
,,0.23,"[4.5, 0]",/sounds/legit/right70.wav,,,,,9,20,335,11,,,,,,,,,,,,,,,right,0.151472091675,,,,,participant9,25,59.9225663401,M,trial,2017_May_27_1221,
,,0.1,"[-2.25, 0]",/sounds/legit/left35.wav,,,,,9,21,336,20,,,,,,,,,,,,,,,left,1.1034040451,,,,,participant9,25,59.9225663401,M,trial,2017_May_27_1221,
,,0.23,"[6.75, 0]",/sounds/legit/right100.wav,,,,,9,22,337,16,,,,,,,,,,,,,,,right,0.36897611618,,,,,participant9,25,59.9225663401,M,trial,2017_May_27_1221,
,,0.62,"[-2.25, 0]",/sounds/legit/left35.wav,,,,,9,23,338,24,,,,,,,,,,,,,,,left,0.235090017319,,,,,participant9,25,59.9225663401,M,trial,2017_May_27_1221,
,,0.1,"[0, 0]",/sounds/legit/equal.wav,,,,,9,24,339,0,,,,,,,,,,,,,,,left,0.469209909439,,,,,participant9,25,59.9225663401,M,trial,2017_May_27_1221,
,,0.49,"[-6.75, 0]",/sounds/legit/left100.wav,,,,,9,25,340,33,,,,,,,,,,,,,,,left,0.251724004745,,,,,participant9,25,59.9225663401,M,trial,2017_May_27_1221,
,,0.49,"[2.25, 0]",/sounds/legit/right35.wav,,,,,9,26,341,8,,,,,,,,,,,,,,,right,0.151484966278,,,,,participant9,25,59.9225663401,M,trial,2017_May_27_1221,
,,0.36,"[-4.5, 0]",/sounds/legit/left70.wav,,,,,9,27,342,27,,,,,,,,,,,,,,,left,0.168773174286,,,,,participant9,25,59.9225663401,M,trial,2017_May_27_1221,
,,0.36,"[0, 0]",/sounds/legit/equal.wav,,,,,9,28,343,2,,,,,,,,,,,,,,,left,0.485272884369,,,,,participant9,25,59.9225663401,M,trial,2017_May_27_1221,
,,0.23,"[0, 0]",/sounds/legit/equal.wav,,,,,9,29,344,1,,,,,,,,,,,,,,,left,0.302132129669,,,,,participant9,25,59.9225663401,M,trial,2017_May_27_1221,
,,0.36,"[-6.75, 0]",/sounds/legit/left100.wav,,,,,9,30,345,32,,,,,,,,,,,,,,,left,0.285395145416,,,,,participant9,25,59.9225663401,M,trial,2017_May_27_1221,
,,0.49,"[6.75, 0]",/sounds/legit/right100.wav,,,,,9,31,346,18,,,,,,,,,,,,,,,right,1.13707709312,,,,,participant9,25,59.9225663401,M,trial,2017_May_27_1221,
,,0.23,"[-4.5, 0]",/sounds/legit/left70.wav,,,,,9,32,347,26,,,,,,,,,,,,,,,left,0.302196025848,,,,,participant9,25,59.9225663401,M,trial,2017_May_27_1221,
,,0.62,"[2.25, 0]",/sounds/legit/right35.wav,,,,,9,33,348,9,,,,,,,,,,,,,,,right,0.802906036377,,,,,participant9,25,59.9225663401,M,trial,2017_May_27_1221,
,,0.62,"[-6.75, 0]",/sounds/legit/left100.wav,,,,,9,34,349,34,,,,,,,,,,,,,,,left,0.820015907288,,,,,participant9,25,59.9225663401,M,trial,2017_May_27_1221,
,,,,,,,,,,,,,,,,,,,,,,,,,,,,,space,47.1024551392,,,participant9,25,59.9225663401,M,trial,2017_May_27_1221,
,,0.1,"[4.5, 0]",/sounds/legit/right70.wav,,,,,,,,,0,0,0,10,,,,,,,,,,,,,,,right,5.31297802925,participant9,25,59.9225663401,M,trial,2017_May_27_1221,
,,0.23,"[0, 0]",/sounds/legit/equal.wav,,,,,,,,,0,1,1,1,,,,,,,,,,,,,,,right,4.17721509933,participant9,25,59.9225663401,M,trial,2017_May_27_1221,
,,0.23,"[2.25, 0]",/sounds/legit/right35.wav,,,,,,,,,0,2,2,6,,,,,,,,,,,,,,,right,2.90746688843,participant9,25,59.9225663401,M,trial,2017_May_27_1221,
,,0.23,"[4.5, 0]",/sounds/legit/right70.wav,,,,,,,,,0,3,3,11,,,,,,,,,,,,,,,right,0.652770042419,participant9,25,59.9225663401,M,trial,2017_May_27_1221,
,,0.49,"[6.75, 0]",/sounds/legit/right100.wav,,,,,,,,,0,4,4,18,,,,,,,,,,,,,,,right,0.535770177841,participant9,25,59.9225663401,M,trial,2017_May_27_1221,
,,0.1,"[4.5, 0]",/sounds/legit/right70.wav,,,,,,,,,0,5,5,10,,,,,,,,,,,,,,,right,0.151598930359,participant9,25,59.9225663401,M,trial,2017_May_27_1221,
,,0.62,"[0, 0]",/sounds/legit/equal.wav,,,,,,,,,0,6,6,4,,,,,,,,,,,,,,,right,0.26863193512,participant9,25,59.9225663401,M,trial,2017_May_27_1221,
,,0.23,"[-6.75, 0]",/sounds/legit/left100.wav,,,,,,,,,0,7,7,31,,,,,,,,,,,,,,,left,0.485512018204,participant9,25,59.9225663401,M,trial,2017_May_27_1221,
,,0.62,"[-2.25, 0]",/sounds/legit/left35.wav,,,,,,,,,0,8,8,24,,,,,,,,,,,,,,,left,0.937032938004,participant9,25,59.9225663401,M,trial,2017_May_27_1221,
,,0.23,"[6.75, 0]",/sounds/legit/right100.wav,,,,,,,,,0,9,9,16,,,,,,,,,,,,,,,right,0.251936197281,participant9,25,59.9225663401,M,trial,2017_May_27_1221,
,,0.62,"[2.25, 0]",/sounds/legit/right35.wav,,,,,,,,,0,10,10,9,,,,,,,,,,,,,,,right,0.435820817947,participant9,25,59.9225663401,M,trial,2017_May_27_1221,
,,0.36,"[4.5, 0]",/sounds/legit/right70.wav,,,,,,,,,0,11,11,12,,,,,,,,,,,,,,,right,0.2184009552,participant9,25,59.9225663401,M,trial,2017_May_27_1221,
,,0.1,"[-4.5, 0]",/sounds/legit/left70.wav,,,,,,,,,0,12,12,25,,,,,,,,,,,,,,,left,0.2854180336,participant9,25,59.9225663401,M,trial,2017_May_27_1221,
,,0.62,"[-2.25, 0]",/sounds/legit/left35.wav,,,,,,,,,0,13,13,24,,,,,,,,,,,,,,,left,0.435677051544,participant9,25,59.9225663401,M,trial,2017_May_27_1221,
,,0.49,"[-6.75, 0]",/sounds/legit/left100.wav,,,,,,,,,0,14,14,33,,,,,,,,,,,,,,,left,0.252017021179,participant9,25,59.9225663401,M,trial,2017_May_27_1221,
,,0.36,"[0, 0]",/sounds/legit/equal.wav,,,,,,,,,0,15,15,2,,,,,,,,,,,,,,,right,0.235272169113,participant9,25,59.9225663401,M,trial,2017_May_27_1221,
,,0.49,"[6.75, 0]",/sounds/legit/right100.wav,,,,,,,,,0,16,16,18,,,,,,,,,,,,,,,right,0.318353891373,participant9,25,59.9225663401,M,trial,2017_May_27_1221,
,,0.1,"[0, 0]",/sounds/legit/equal.wav,,,,,,,,,0,17,17,0,,,,,,,,,,,,,,,right,0.251998901367,participant9,25,59.9225663401,M,trial,2017_May_27_1221,
,,0.1,"[6.75, 0]",/sounds/legit/right100.wav,,,,,,,,,0,18,18,15,,,,,,,,,,,,,,,right,0.218519926071,participant9,25,59.9225663401,M,trial,2017_May_27_1221,
,,0.1,"[-2.25, 0]",/sounds/legit/left35.wav,,,,,,,,,0,19,19,20,,,,,,,,,,,,,,,left,0.385570049286,participant9,25,59.9225663401,M,trial,2017_May_27_1221,
,,0.1,"[6.75, 0]",/sounds/legit/right100.wav,,,,,,,,,0,20,20,15,,,,,,,,,,,,,,,right,0.285179853439,participant9,25,59.9225663401,M,trial,2017_May_27_1221,
,,0.1,"[2.25, 0]",/sounds/legit/right35.wav,,,,,,,,,0,21,21,5,,,,,,,,,,,,,,,right,0.502216100693,participant9,25,59.9225663401,M,trial,2017_May_27_1221,
,,0.62,"[2.25, 0]",/sounds/legit/right35.wav,,,,,,,,,0,22,22,9,,,,,,,,,,,,,,,right,0.452210187912,participant9,25,59.9225663401,M,trial,2017_May_27_1221,
,,0.1,"[4.5, 0]",/sounds/legit/right70.wav,,,,,,,,,0,23,23,10,,,,,,,,,,,,,,,right,0.368751049042,participant9,25,59.9225663401,M,trial,2017_May_27_1221,
,,0.23,"[6.75, 0]",/sounds/legit/right100.wav,,,,,,,,,0,24,24,16,,,,,,,,,,,,,,,right,0.368689060211,participant9,25,59.9225663401,M,trial,2017_May_27_1221,
,,0.23,"[0, 0]",/sounds/legit/equal.wav,,,,,,,,,0,25,25,1,,,,,,,,,,,,,,,right,0.3355281353,participant9,25,59.9225663401,M,trial,2017_May_27_1221,
,,0.62,"[0, 0]",/sounds/legit/equal.wav,,,,,,,,,0,26,26,4,,,,,,,,,,,,,,,right,0.285086870193,participant9,25,59.9225663401,M,trial,2017_May_27_1221,
,,0.49,"[0, 0]",/sounds/legit/equal.wav,,,,,,,,,0,27,27,3,,,,,,,,,,,,,,,left,1.2378988266,participant9,25,59.9225663401,M,trial,2017_May_27_1221,
,,0.36,"[2.25, 0]",/sounds/legit/right35.wav,,,,,,,,,0,28,28,7,,,,,,,,,,,,,,,right,0.368647813797,participant9,25,59.9225663401,M,trial,2017_May_27_1221,
,,0.36,"[0, 0]",/sounds/legit/equal.wav,,,,,,,,,0,29,29,2,,,,,,,,,,,,,,,right,0.535840988159,participant9,25,59.9225663401,M,trial,2017_May_27_1221,
,,0.36,"[-4.5, 0]",/sounds/legit/left70.wav,,,,,,,,,0,30,30,27,,,,,,,,,,,,,,,left,0.218431949615,participant9,25,59.9225663401,M,trial,2017_May_27_1221,
,,0.36,"[-4.5, 0]",/sounds/legit/left70.wav,,,,,,,,,0,31,31,27,,,,,,,,,,,,,,,left,0.285062074661,participant9,25,59.9225663401,M,trial,2017_May_27_1221,
,,0.36,"[2.25, 0]",/sounds/legit/right35.wav,,,,,,,,,0,32,32,7,,,,,,,,,,,,,,,right,0.268403053284,participant9,25,59.9225663401,M,trial,2017_May_27_1221,
,,0.62,"[2.25, 0]",/sounds/legit/right35.wav,,,,,,,,,0,33,33,9,,,,,,,,,,,,,,,right,0.3188829422,participant9,25,59.9225663401,M,trial,2017_May_27_1221,
,,0.23,"[0, 0]",/sounds/legit/equal.wav,,,,,,,,,0,34,34,1,,,,,,,,,,,,,,,right,0.301983118057,participant9,25,59.9225663401,M,trial,2017_May_27_1221,
,,0.49,"[6.75, 0]",/sounds/legit/right100.wav,,,,,,,,,1,0,35,18,,,,,,,,,,,,,,,right,0.335439920425,participant9,25,59.9225663401,M,trial,2017_May_27_1221,
,,0.49,"[-2.25, 0]",/sounds/legit/left35.wav,,,,,,,,,1,1,36,23,,,,,,,,,,,,,,,left,0.819577932358,participant9,25,59.9225663401,M,trial,2017_May_27_1221,
,,0.36,"[2.25, 0]",/sounds/legit/right35.wav,,,,,,,,,1,2,37,7,,,,,,,,,,,,,,,right,0.302222967148,participant9,25,59.9225663401,M,trial,2017_May_27_1221,
,,0.62,"[0, 0]",/sounds/legit/equal.wav,,,,,,,,,1,3,38,4,,,,,,,,,,,,,,,right,0.385483980179,participant9,25,59.9225663401,M,trial,2017_May_27_1221,
,,0.36,"[-2.25, 0]",/sounds/legit/left35.wav,,,,,,,,,1,4,39,22,,,,,,,,,,,,,,,left,0.284340143204,participant9,25,59.9225663401,M,trial,2017_May_27_1221,
,,0.36,"[-2.25, 0]",/sounds/legit/left35.wav,,,,,,,,,1,5,40,22,,,,,,,,,,,,,,,left,0.235122919083,participant9,25,59.9225663401,M,trial,2017_May_27_1221,
,,0.1,"[2.25, 0]",/sounds/legit/right35.wav,,,,,,,,,1,6,41,5,,,,,,,,,,,,,,,right,0.234292030334,participant9,25,59.9225663401,M,trial,2017_May_27_1221,
,,0.49,"[4.5, 0]",/sounds/legit/right70.wav,,,,,,,,,1,7,42,13,,,,,,,,,,,,,,,right,0.385612010956,participant9,25,59.9225663401,M,trial,2017_May_27_1221,
,,0.49,"[-6.75, 0]",/sounds/legit/left100.wav,,,,,,,,,1,8,43,33,,,,,,,,,,,,,,,left,0.151600837708,participant9,25,59.9225663401,M,trial,2017_May_27_1221,
,,0.23,"[-2.25, 0]",/sounds/legit/left35.wav,,,,,,,,,1,9,44,21,,,,,,,,,,,,,,,left,1.18731999397,participant9,25,59.9225663401,M,trial,2017_May_27_1221,
,,0.36,"[-2.25, 0]",/sounds/legit/left35.wav,,,,,,,,,1,10,45,22,,,,,,,,,,,,,,,left,0.335363864899,participant9,25,59.9225663401,M,trial,2017_May_27_1221,
,,0.23,"[2.25, 0]",/sounds/legit/right35.wav,,,,,,,,,1,11,46,6,,,,,,,,,,,,,,,right,0.302129983902,participant9,25,59.9225663401,M,trial,2017_May_27_1221,
,,0.36,"[-6.75, 0]",/sounds/legit/left100.wav,,,,,,,,,1,12,47,32,,,,,,,,,,,,,,,left,0.284237146378,participant9,25,59.9225663401,M,trial,2017_May_27_1221,
,,0.23,"[-2.25, 0]",/sounds/legit/left35.wav,,,,,,,,,1,13,48,21,,,,,,,,,,,,,,,right,0.352260112762,participant9,25,59.9225663401,M,trial,2017_May_27_1221,
,,0.49,"[-4.5, 0]",/sounds/legit/left70.wav,,,,,,,,,1,14,49,28,,,,,,,,,,,,,,,left,0.252035140991,participant9,25,59.9225663401,M,trial,2017_May_27_1221,
,,0.49,"[-4.5, 0]",/sounds/legit/left70.wav,,,,,,,,,1,15,50,28,,,,,,,,,,,,,,,left,0.168630838394,participant9,25,59.9225663401,M,trial,2017_May_27_1221,
,,0.23,"[2.25, 0]",/sounds/legit/right35.wav,,,,,,,,,1,16,51,6,,,,,,,,,,,,,,,right,0.151581048965,participant9,25,59.9225663401,M,trial,2017_May_27_1221,
,,0.36,"[6.75, 0]",/sounds/legit/right100.wav,,,,,,,,,1,17,52,17,,,,,,,,,,,,,,,right,0.385464191437,participant9,25,59.9225663401,M,trial,2017_May_27_1221,
,,0.62,"[6.75, 0]",/sounds/legit/right100.wav,,,,,,,,,1,18,53,19,,,,,,,,,,,,,,,right,0.235190868378,participant9,25,59.9225663401,M,trial,2017_May_27_1221,
,,0.36,"[0, 0]",/sounds/legit/equal.wav,,,,,,,,,1,19,54,2,,,,,,,,,,,,,,,right,0.285715818405,participant9,25,59.9225663401,M,trial,2017_May_27_1221,
,,0.62,"[6.75, 0]",/sounds/legit/right100.wav,,,,,,,,,1,20,55,19,,,,,,,,,,,,,,,right,0.285282850266,participant9,25,59.9225663401,M,trial,2017_May_27_1221,
,,0.1,"[-2.25, 0]",/sounds/legit/left35.wav,,,,,,,,,1,21,56,20,,,,,,,,,,,,,,,left,0.185115098953,participant9,25,59.9225663401,M,trial,2017_May_27_1221,
,,0.1,"[2.25, 0]",/sounds/legit/right35.wav,,,,,,,,,1,22,57,5,,,,,,,,,,,,,,,right,0.168303012848,participant9,25,59.9225663401,M,trial,2017_May_27_1221,
,,0.62,"[4.5, 0]",/sounds/legit/right70.wav,,,,,,,,,1,23,58,14,,,,,,,,,,,,,,,right,0.201606035233,participant9,25,59.9225663401,M,trial,2017_May_27_1221,
,,0.36,"[-4.5, 0]",/sounds/legit/left70.wav,,,,,,,,,1,24,59,27,,,,,,,,,,,,,,,left,0.167107105255,participant9,25,59.9225663401,M,trial,2017_May_27_1221,
,,0.1,"[-2.25, 0]",/sounds/legit/left35.wav,,,,,,,,,1,25,60,20,,,,,,,,,,,,,,,left,0.151764154434,participant9,25,59.9225663401,M,trial,2017_May_27_1221,
,,0.1,"[0, 0]",/sounds/legit/equal.wav,,,,,,,,,1,26,61,0,,,,,,,,,,,,,,,right,0.0347349643707,participant9,25,59.9225663401,M,trial,2017_May_27_1221,
,,0.36,"[4.5, 0]",/sounds/legit/right70.wav,,,,,,,,,1,27,62,12,,,,,,,,,,,,,,,right,0.0680041313171,participant9,25,59.9225663401,M,trial,2017_May_27_1221,
,,0.23,"[-2.25, 0]",/sounds/legit/left35.wav,,,,,,,,,1,28,63,21,,,,,,,,,,,,,,,left,0.185362100601,participant9,25,59.9225663401,M,trial,2017_May_27_1221,
,,0.1,"[0, 0]",/sounds/legit/equal.wav,,,,,,,,,1,29,64,0,,,,,,,,,,,,,,,right,0.168619155884,participant9,25,59.9225663401,M,trial,2017_May_27_1221,
,,0.36,"[6.75, 0]",/sounds/legit/right100.wav,,,,,,,,,1,30,65,17,,,,,,,,,,,,,,,right,0.519039869308,participant9,25,59.9225663401,M,trial,2017_May_27_1221,
,,0.49,"[0, 0]",/sounds/legit/equal.wav,,,,,,,,,1,31,66,3,,,,,,,,,,,,,,,right,0.135035991669,participant9,25,59.9225663401,M,trial,2017_May_27_1221,
,,0.36,"[6.75, 0]",/sounds/legit/right100.wav,,,,,,,,,1,32,67,17,,,,,,,,,,,,,,,right,0.18488907814,participant9,25,59.9225663401,M,trial,2017_May_27_1221,
,,0.23,"[0, 0]",/sounds/legit/equal.wav,,,,,,,,,1,33,68,1,,,,,,,,,,,,,,,right,0.101622104645,participant9,25,59.9225663401,M,trial,2017_May_27_1221,
,,0.1,"[0, 0]",/sounds/legit/equal.wav,,,,,,,,,1,34,69,0,,,,,,,,,,,,,,,right,0.0680639743805,participant9,25,59.9225663401,M,trial,2017_May_27_1221,
,,0.36,"[2.25, 0]",/sounds/legit/right35.wav,,,,,,,,,2,0,70,7,,,,,,,,,,,,,,,right,0.184955835342,participant9,25,59.9225663401,M,trial,2017_May_27_1221,
,,0.1,"[-4.5, 0]",/sounds/legit/left70.wav,,,,,,,,,2,1,71,25,,,,,,,,,,,,,,,left,0.0681049823761,participant9,25,59.9225663401,M,trial,2017_May_27_1221,
,,0.62,"[-6.75, 0]",/sounds/legit/left100.wav,,,,,,,,,2,2,72,34,,,,,,,,,,,,,,,left,0.167509078979,participant9,25,59.9225663401,M,trial,2017_May_27_1221,
,,0.49,"[0, 0]",/sounds/legit/equal.wav,,,,,,,,,2,3,73,3,,,,,,,,,,,,,,,right,0.13508605957,participant9,25,59.9225663401,M,trial,2017_May_27_1221,
,,0.49,"[-2.25, 0]",/sounds/legit/left35.wav,,,,,,,,,2,4,74,23,,,,,,,,,,,,,,,left,0.301836967468,participant9,25,59.9225663401,M,trial,2017_May_27_1221,
,,0.23,"[-6.75, 0]",/sounds/legit/left100.wav,,,,,,,,,2,5,75,31,,,,,,,,,,,,,,,left,0.185054063797,participant9,25,59.9225663401,M,trial,2017_May_27_1221,
,,0.49,"[-6.75, 0]",/sounds/legit/left100.wav,,,,,,,,,2,6,76,33,,,,,,,,,,,,,,,left,0.0681099891663,participant9,25,59.9225663401,M,trial,2017_May_27_1221,
,,0.1,"[2.25, 0]",/sounds/legit/right35.wav,,,,,,,,,2,7,77,5,,,,,,,,,,,,,,,right,0.0514249801636,participant9,25,59.9225663401,M,trial,2017_May_27_1221,
,,0.62,"[2.25, 0]",/sounds/legit/right35.wav,,,,,,,,,2,8,78,9,,,,,,,,,,,,,,,right,0.268536090851,participant9,25,59.9225663401,M,trial,2017_May_27_1221,
,,0.36,"[-2.25, 0]",/sounds/legit/left35.wav,,,,,,,,,2,9,79,22,,,,,,,,,,,,,,,left,0.135143995285,participant9,25,59.9225663401,M,trial,2017_May_27_1221,
,,0.62,"[-6.75, 0]",/sounds/legit/left100.wav,,,,,,,,,2,10,80,34,,,,,,,,,,,,,,,left,0.134921073914,participant9,25,59.9225663401,M,trial,2017_May_27_1221,
,,0.36,"[2.25, 0]",/sounds/legit/right35.wav,,,,,,,,,2,11,81,7,,,,,,,,,,,,,,,right,0.051383972168,participant9,25,59.9225663401,M,trial,2017_May_27_1221,
,,0.1,"[-4.5, 0]",/sounds/legit/left70.wav,,,,,,,,,2,12,82,25,,,,,,,,,,,,,,,left,0.11790895462,participant9,25,59.9225663401,M,trial,2017_May_27_1221,
,,0.49,"[6.75, 0]",/sounds/legit/right100.wav,,,,,,,,,2,13,83,18,,,,,,,,,,,,,,,right,0.134868144989,participant9,25,59.9225663401,M,trial,2017_May_27_1221,
,,0.1,"[6.75, 0]",/sounds/legit/right100.wav,,,,,,,,,2,14,84,15,,,,,,,,,,,,,,,right,0.552397012711,participant9,25,59.9225663401,M,trial,2017_May_27_1221,
,,0.62,"[-2.25, 0]",/sounds/legit/left35.wav,,,,,,,,,2,15,85,24,,,,,,,,,,,,,,,left,0.101228952408,participant9,25,59.9225663401,M,trial,2017_May_27_1221,
,,0.36,"[-6.75, 0]",/sounds/legit/left100.wav,,,,,,,,,2,16,86,32,,,,,,,,,,,,,,,left,0.101846218109,participant9,25,59.9225663401,M,trial,2017_May_27_1221,
,,0.23,"[-4.5, 0]",/sounds/legit/left70.wav,,,,,,,,,2,17,87,26,,,,,,,,,,,,,,,left,0.168401956558,participant9,25,59.9225663401,M,trial,2017_May_27_1221,
,,0.62,"[6.75, 0]",/sounds/legit/right100.wav,,,,,,,,,2,18,88,19,,,,,,,,,,,,,,,right,0.0514378547668,participant9,25,59.9225663401,M,trial,2017_May_27_1221,
,,0.36,"[-2.25, 0]",/sounds/legit/left35.wav,,,,,,,,,2,19,89,22,,,,,,,,,,,,,,,left,0.251898050308,participant9,25,59.9225663401,M,trial,2017_May_27_1221,
,,0.36,"[4.5, 0]",/sounds/legit/right70.wav,,,,,,,,,2,20,90,12,,,,,,,,,,,,,,,right,0.00144195556641,participant9,25,59.9225663401,M,trial,2017_May_27_1221,
,,0.62,"[-2.25, 0]",/sounds/legit/left35.wav,,,,,,,,,2,21,91,24,,,,,,,,,,,,,,,left,0.185306072235,participant9,25,59.9225663401,M,trial,2017_May_27_1221,
,,0.23,"[0, 0]",/sounds/legit/equal.wav,,,,,,,,,2,22,92,1,,,,,,,,,,,,,,,right,0.184996128082,participant9,25,59.9225663401,M,trial,2017_May_27_1221,
,,0.1,"[-4.5, 0]",/sounds/legit/left70.wav,,,,,,,,,2,23,93,25,,,,,,,,,,,,,,,left,0.218638896942,participant9,25,59.9225663401,M,trial,2017_May_27_1221,
,,0.23,"[-4.5, 0]",/sounds/legit/left70.wav,,,,,,,,,2,24,94,26,,,,,,,,,,,,,,,left,0.101490974426,participant9,25,59.9225663401,M,trial,2017_May_27_1221,
,,0.36,"[0, 0]",/sounds/legit/equal.wav,,,,,,,,,2,25,95,2,,,,,,,,,,,,,,,right,0.101665019989,participant9,25,59.9225663401,M,trial,2017_May_27_1221,
,,0.1,"[-6.75, 0]",/sounds/legit/left100.wav,,,,,,,,,2,26,96,30,,,,,,,,,,,,,,,left,0.101614952087,participant9,25,59.9225663401,M,trial,2017_May_27_1221,
,,0.1,"[-4.5, 0]",/sounds/legit/left70.wav,,,,,,,,,2,27,97,25,,,,,,,,,,,,,,,left,1.05386590958,participant9,25,59.9225663401,M,trial,2017_May_27_1221,
,,0.49,"[-4.5, 0]",/sounds/legit/left70.wav,,,,,,,,,2,28,98,28,,,,,,,,,,,,,,,left,0.00150489807129,participant9,25,59.9225663401,M,trial,2017_May_27_1221,
,,0.1,"[0, 0]",/sounds/legit/equal.wav,,,,,,,,,2,29,99,0,,,,,,,,,,,,,,,right,0.168376922607,participant9,25,59.9225663401,M,trial,2017_May_27_1221,
,,0.36,"[6.75, 0]",/sounds/legit/right100.wav,,,,,,,,,2,30,100,17,,,,,,,,,,,,,,,right,0.0349490642548,participant9,25,59.9225663401,M,trial,2017_May_27_1221,
,,0.1,"[2.25, 0]",/sounds/legit/right35.wav,,,,,,,,,2,31,101,5,,,,,,,,,,,,,,,right,0.251975059509,participant9,25,59.9225663401,M,trial,2017_May_27_1221,
,,0.49,"[-4.5, 0]",/sounds/legit/left70.wav,,,,,,,,,2,32,102,28,,,,,,,,,,,,,,,left,0.0680282115936,participant9,25,59.9225663401,M,trial,2017_May_27_1221,
,,0.49,"[-2.25, 0]",/sounds/legit/left35.wav,,,,,,,,,2,33,103,23,,,,,,,,,,,,,,,left,0.318278074265,participant9,25,59.9225663401,M,trial,2017_May_27_1221,
,,0.49,"[2.25, 0]",/sounds/legit/right35.wav,,,,,,,,,2,34,104,8,,,,,,,,,,,,,,,right,0.0182518959045,participant9,25,59.9225663401,M,trial,2017_May_27_1221,
,,0.62,"[0, 0]",/sounds/legit/equal.wav,,,,,,,,,3,0,105,4,,,,,,,,,,,,,,,right,0.235020875931,participant9,25,59.9225663401,M,trial,2017_May_27_1221,
,,0.36,"[6.75, 0]",/sounds/legit/right100.wav,,,,,,,,,3,1,106,17,,,,,,,,,,,,,,,right,0.23522400856,participant9,25,59.9225663401,M,trial,2017_May_27_1221,
,,0.49,"[4.5, 0]",/sounds/legit/right70.wav,,,,,,,,,3,2,107,13,,,,,,,,,,,,,,,right,0.268580913544,participant9,25,59.9225663401,M,trial,2017_May_27_1221,
,,0.23,"[4.5, 0]",/sounds/legit/right70.wav,,,,,,,,,3,3,108,11,,,,,,,,,,,,,,,right,0.00142407417297,participant9,25,59.9225663401,M,trial,2017_May_27_1221,
,,0.49,"[6.75, 0]",/sounds/legit/right100.wav,,,,,,,,,3,4,109,18,,,,,,,,,,,,,,,right,0.0173110961914,participant9,25,59.9225663401,M,trial,2017_May_27_1221,
,,0.62,"[-2.25, 0]",/sounds/legit/left35.wav,,,,,,,,,3,5,110,24,,,,,,,,,,,,,,,left,0.235141992569,participant9,25,59.9225663401,M,trial,2017_May_27_1221,
,,0.1,"[4.5, 0]",/sounds/legit/right70.wav,,,,,,,,,3,6,111,10,,,,,,,,,,,,,,,right,0.0179150104523,participant9,25,59.9225663401,M,trial,2017_May_27_1221,
,,0.1,"[6.75, 0]",/sounds/legit/right100.wav,,,,,,,,,3,7,112,15,,,,,,,,,,,,,,,right,0.168371200562,participant9,25,59.9225663401,M,trial,2017_May_27_1221,
,,0.1,"[-6.75, 0]",/sounds/legit/left100.wav,,,,,,,,,3,8,113,30,,,,,,,,,,,,,,,left,0.101804971695,participant9,25,59.9225663401,M,trial,2017_May_27_1221,
,,0.36,"[-2.25, 0]",/sounds/legit/left35.wav,,,,,,,,,3,9,114,22,,,,,,,,,,,,,,,left,0.185059785843,participant9,25,59.9225663401,M,trial,2017_May_27_1221,
,,0.62,"[2.25, 0]",/sounds/legit/right35.wav,,,,,,,,,3,10,115,9,,,,,,,,,,,,,,,right,0.0344340801239,participant9,25,59.9225663401,M,trial,2017_May_27_1221,
,,0.36,"[-4.5, 0]",/sounds/legit/left70.wav,,,,,,,,,3,11,116,27,,,,,,,,,,,,,,,left,0.0515320301056,participant9,25,59.9225663401,M,trial,2017_May_27_1221,
,,0.49,"[4.5, 0]",/sounds/legit/right70.wav,,,,,,,,,3,12,117,13,,,,,,,,,,,,,,,right,0.0348091125488,participant9,25,59.9225663401,M,trial,2017_May_27_1221,
,,0.36,"[4.5, 0]",/sounds/legit/right70.wav,,,,,,,,,3,13,118,12,,,,,,,,,,,,,,,right,0.869777917862,participant9,25,59.9225663401,M,trial,2017_May_27_1221,
,,0.1,"[-6.75, 0]",/sounds/legit/left100.wav,,,,,,,,,3,14,119,30,,,,,,,,,,,,,,,left,0.100818157196,participant9,25,59.9225663401,M,trial,2017_May_27_1221,
,,0.62,"[0, 0]",/sounds/legit/equal.wav,,,,,,,,,3,15,120,4,,,,,,,,,,,,,,,left,0.301819086075,participant9,25,59.9225663401,M,trial,2017_May_27_1221,
,,0.62,"[6.75, 0]",/sounds/legit/right100.wav,,,,,,,,,3,16,121,19,,,,,,,,,,,,,,,right,0.0848731994629,participant9,25,59.9225663401,M,trial,2017_May_27_1221,
,,0.23,"[0, 0]",/sounds/legit/equal.wav,,,,,,,,,3,17,122,1,,,,,,,,,,,,,,,right,0.117914915085,participant9,25,59.9225663401,M,trial,2017_May_27_1221,
,,0.1,"[6.75, 0]",/sounds/legit/right100.wav,,,,,,,,,3,18,123,15,,,,,,,,,,,,,,,right,0.736218929291,participant9,25,59.9225663401,M,trial,2017_May_27_1221,
,,0.23,"[0, 0]",/sounds/legit/equal.wav,,,,,,,,,3,19,124,1,,,,,,,,,,,,,,,right,0.00131583213806,participant9,25,59.9225663401,M,trial,2017_May_27_1221,
,,0.23,"[2.25, 0]",/sounds/legit/right35.wav,,,,,,,,,3,20,125,6,,,,,,,,,,,,,,,right,0.551748037338,participant9,25,59.9225663401,M,trial,2017_May_27_1221,
,,0.36,"[2.25, 0]",/sounds/legit/right35.wav,,,,,,,,,3,21,126,7,,,,,,,,,,,,,,,right,0.0179810523987,participant9,25,59.9225663401,M,trial,2017_May_27_1221,
,,0.36,"[6.75, 0]",/sounds/legit/right100.wav,,,,,,,,,3,22,127,17,,,,,,,,,,,,,,,right,0.118321895599,participant9,25,59.9225663401,M,trial,2017_May_27_1221,
,,0.36,"[-4.5, 0]",/sounds/legit/left70.wav,,,,,,,,,3,23,128,27,,,,,,,,,,,,,,,left,0.168338060379,participant9,25,59.9225663401,M,trial,2017_May_27_1221,
,,0.62,"[6.75, 0]",/sounds/legit/right100.wav,,,,,,,,,3,24,129,19,,,,,,,,,,,,,,,right,0.068351984024,participant9,25,59.9225663401,M,trial,2017_May_27_1221,
,,0.36,"[4.5, 0]",/sounds/legit/right70.wav,,,,,,,,,3,25,130,12,,,,,,,,,,,,,,,right,0.185059070587,participant9,25,59.9225663401,M,trial,2017_May_27_1221,
,,0.1,"[0, 0]",/sounds/legit/equal.wav,,,,,,,,,3,26,131,0,,,,,,,,,,,,,,,right,0.919721841812,participant9,25,59.9225663401,M,trial,2017_May_27_1221,
,,0.62,"[4.5, 0]",/sounds/legit/right70.wav,,,,,,,,,3,27,132,14,,,,,,,,,,,,,,,right,0.101218938828,participant9,25,59.9225663401,M,trial,2017_May_27_1221,
,,0.62,"[-4.5, 0]",/sounds/legit/left70.wav,,,,,,,,,3,28,133,29,,,,,,,,,,,,,,,left,0.0347769260406,participant9,25,59.9225663401,M,trial,2017_May_27_1221,
,,0.36,"[4.5, 0]",/sounds/legit/right70.wav,,,,,,,,,3,29,134,12,,,,,,,,,,,,,,,right,0.0181901454926,participant9,25,59.9225663401,M,trial,2017_May_27_1221,
,,0.23,"[4.5, 0]",/sounds/legit/right70.wav,,,,,,,,,3,30,135,11,,,,,,,,,,,,,,,right,0.167366981506,participant9,25,59.9225663401,M,trial,2017_May_27_1221,
,,0.36,"[2.25, 0]",/sounds/legit/right35.wav,,,,,,,,,3,31,136,7,,,,,,,,,,,,,,,right,0.0515561103821,participant9,25,59.9225663401,M,trial,2017_May_27_1221,
,,0.62,"[-4.5, 0]",/sounds/legit/left70.wav,,,,,,,,,3,32,137,29,,,,,,,,,,,,,,,left,0.050400018692,participant9,25,59.9225663401,M,trial,2017_May_27_1221,
,,0.1,"[0, 0]",/sounds/legit/equal.wav,,,,,,,,,3,33,138,0,,,,,,,,,,,,,,,right,0.0515429973602,participant9,25,59.9225663401,M,trial,2017_May_27_1221,
,,0.1,"[-4.5, 0]",/sounds/legit/left70.wav,,,,,,,,,3,34,139,25,,,,,,,,,,,,,,,left,0.686285972595,participant9,25,59.9225663401,M,trial,2017_May_27_1221,
,,0.36,"[-6.75, 0]",/sounds/legit/left100.wav,,,,,,,,,4,0,140,32,,,,,,,,,,,,,,,left,0.752981901169,participant9,25,59.9225663401,M,trial,2017_May_27_1221,
,,0.62,"[6.75, 0]",/sounds/legit/right100.wav,,,,,,,,,4,1,141,19,,,,,,,,,,,,,,,right,0.301848888397,participant9,25,59.9225663401,M,trial,2017_May_27_1221,
,,0.49,"[6.75, 0]",/sounds/legit/right100.wav,,,,,,,,,4,2,142,18,,,,,,,,,,,,,,,right,0.0336298942566,participant9,25,59.9225663401,M,trial,2017_May_27_1221,
,,0.49,"[-6.75, 0]",/sounds/legit/left100.wav,,,,,,,,,4,3,143,33,,,,,,,,,,,,,,,left,0.652922868729,participant9,25,59.9225663401,M,trial,2017_May_27_1221,
,,0.49,"[2.25, 0]",/sounds/legit/right35.wav,,,,,,,,,4,4,144,8,,,,,,,,,,,,,,,right,0.101845026016,participant9,25,59.9225663401,M,trial,2017_May_27_1221,
,,0.23,"[2.25, 0]",/sounds/legit/right35.wav,,,,,,,,,4,5,145,6,,,,,,,,,,,,,,,right,0.452255964279,participant9,25,59.9225663401,M,trial,2017_May_27_1221,
,,0.1,"[2.25, 0]",/sounds/legit/right35.wav,,,,,,,,,4,6,146,5,,,,,,,,,,,,,,,right,0.185081005096,participant9,25,59.9225663401,M,trial,2017_May_27_1221,
,,0.23,"[-4.5, 0]",/sounds/legit/left70.wav,,,,,,,,,4,7,147,26,,,,,,,,,,,,,,,left,0.184991836548,participant9,25,59.9225663401,M,trial,2017_May_27_1221,
,,0.36,"[2.25, 0]",/sounds/legit/right35.wav,,,,,,,,,4,8,148,7,,,,,,,,,,,,,,,right,0.0184631347656,participant9,25,59.9225663401,M,trial,2017_May_27_1221,
,,0.36,"[4.5, 0]",/sounds/legit/right70.wav,,,,,,,,,4,9,149,12,,,,,,,,,,,,,,,right,0.118059873581,participant9,25,59.9225663401,M,trial,2017_May_27_1221,
,,0.1,"[-4.5, 0]",/sounds/legit/left70.wav,,,,,,,,,4,10,150,25,,,,,,,,,,,,,,,left,0.101974010468,participant9,25,59.9225663401,M,trial,2017_May_27_1221,
,,0.23,"[4.5, 0]",/sounds/legit/right70.wav,,,,,,,,,4,11,151,11,,,,,,,,,,,,,,,right,0.00138711929321,participant9,25,59.9225663401,M,trial,2017_May_27_1221,
,,0.49,"[2.25, 0]",/sounds/legit/right35.wav,,,,,,,,,4,12,152,8,,,,,,,,,,,,,,,right,0.0515470504761,participant9,25,59.9225663401,M,trial,2017_May_27_1221,
,,0.49,"[-2.25, 0]",/sounds/legit/left35.wav,,,,,,,,,4,13,153,23,,,,,,,,,,,,,,,left,0.168326854706,participant9,25,59.9225663401,M,trial,2017_May_27_1221,
,,0.23,"[2.25, 0]",/sounds/legit/right35.wav,,,,,,,,,4,14,154,6,,,,,,,,,,,,,,,right,0.0181617736816,participant9,25,59.9225663401,M,trial,2017_May_27_1221,
,,0.36,"[-2.25, 0]",/sounds/legit/left35.wav,,,,,,,,,4,15,155,22,,,,,,,,,,,,,,,left,0.151653051376,participant9,25,59.9225663401,M,trial,2017_May_27_1221,
,,0.1,"[2.25, 0]",/sounds/legit/right35.wav,,,,,,,,,4,16,156,5,,,,,,,,,,,,,,,right,0.118518829346,participant9,25,59.9225663401,M,trial,2017_May_27_1221,
,,0.36,"[-4.5, 0]",/sounds/legit/left70.wav,,,,,,,,,4,17,157,27,,,,,,,,,,,,,,,left,0.0178039073944,participant9,25,59.9225663401,M,trial,2017_May_27_1221,
,,0.49,"[2.25, 0]",/sounds/legit/right35.wav,,,,,,,,,4,18,158,8,,,,,,,,,,,,,,,right,0.185112953186,participant9,25,59.9225663401,M,trial,2017_May_27_1221,
,,0.62,"[2.25, 0]",/sounds/legit/right35.wav,,,,,,,,,4,19,159,9,,,,,,,,,,,,,,,right,0.184836149216,participant9,25,59.9225663401,M,trial,2017_May_27_1221,
,,0.62,"[-2.25, 0]",/sounds/legit/left35.wav,,,,,,,,,4,20,160,24,,,,,,,,,,,,,,,left,0.0850439071655,participant9,25,59.9225663401,M,trial,2017_May_27_1221,
,,0.49,"[-4.5, 0]",/sounds/legit/left70.wav,,,,,,,,,4,21,161,28,,,,,,,,,,,,,,,left,0.235079050064,participant9,25,59.9225663401,M,trial,2017_May_27_1221,
,,0.23,"[-6.75, 0]",/sounds/legit/left100.wav,,,,,,,,,4,22,162,31,,,,,,,,,,,,,,,left,0.185436010361,participant9,25,59.9225663401,M,trial,2017_May_27_1221,
,,0.62,"[-4.5, 0]",/sounds/legit/left70.wav,,,,,,,,,4,23,163,29,,,,,,,,,,,,,,,left,0.168138027191,participant9,25,59.9225663401,M,trial,2017_May_27_1221,
,,0.23,"[-6.75, 0]",/sounds/legit/left100.wav,,,,,,,,,4,24,164,31,,,,,,,,,,,,,,,left,0.117293834686,participant9,25,59.9225663401,M,trial,2017_May_27_1221,
,,0.62,"[2.25, 0]",/sounds/legit/right35.wav,,,,,,,,,4,25,165,9,,,,,,,,,,,,,,,right,0.150985002518,participant9,25,59.9225663401,M,trial,2017_May_27_1221,
,,0.1,"[-2.25, 0]",/sounds/legit/left35.wav,,,,,,,,,4,26,166,20,,,,,,,,,,,,,,,left,0.218607902527,participant9,25,59.9225663401,M,trial,2017_May_27_1221,
,,0.62,"[2.25, 0]",/sounds/legit/right35.wav,,,,,,,,,4,27,167,9,,,,,,,,,,,,,,,right,0.218422889709,participant9,25,59.9225663401,M,trial,2017_May_27_1221,
,,0.36,"[0, 0]",/sounds/legit/equal.wav,,,,,,,,,4,28,168,2,,,,,,,,,,,,,,,right,0.318763971329,participant9,25,59.9225663401,M,trial,2017_May_27_1221,
,,0.62,"[-4.5, 0]",/sounds/legit/left70.wav,,,,,,,,,4,29,169,29,,,,,,,,,,,,,,,left,0.184289932251,participant9,25,59.9225663401,M,trial,2017_May_27_1221,
,,0.62,"[4.5, 0]",/sounds/legit/right70.wav,,,,,,,,,4,30,170,14,,,,,,,,,,,,,,,right,0.118251800537,participant9,25,59.9225663401,M,trial,2017_May_27_1221,
,,0.1,"[4.5, 0]",/sounds/legit/right70.wav,,,,,,,,,4,31,171,10,,,,,,,,,,,,,,,right,0.819733858109,participant9,25,59.9225663401,M,trial,2017_May_27_1221,
,,0.23,"[4.5, 0]",/sounds/legit/right70.wav,,,,,,,,,4,32,172,11,,,,,,,,,,,,,,,right,0.0181181430817,participant9,25,59.9225663401,M,trial,2017_May_27_1221,
,,0.36,"[4.5, 0]",/sounds/legit/right70.wav,,,,,,,,,4,33,173,12,,,,,,,,,,,,,,,right,0.769618034363,participant9,25,59.9225663401,M,trial,2017_May_27_1221,
,,0.23,"[0, 0]",/sounds/legit/equal.wav,,,,,,,,,4,34,174,1,,,,,,,,,,,,,,,right,0.201766967773,participant9,25,59.9225663401,M,trial,2017_May_27_1221,
,,0.49,"[4.5, 0]",/sounds/legit/right70.wav,,,,,,,,,5,0,175,13,,,,,,,,,,,,,,,right,0.686082839966,participant9,25,59.9225663401,M,trial,2017_May_27_1221,
,,0.49,"[-6.75, 0]",/sounds/legit/left100.wav,,,,,,,,,5,1,176,33,,,,,,,,,,,,,,,left,0.0848579406738,participant9,25,59.9225663401,M,trial,2017_May_27_1221,
,,0.62,"[-6.75, 0]",/sounds/legit/left100.wav,,,,,,,,,5,2,177,34,,,,,,,,,,,,,,,left,0.034618139267,participant9,25,59.9225663401,M,trial,2017_May_27_1221,
,,0.23,"[2.25, 0]",/sounds/legit/right35.wav,,,,,,,,,5,3,178,6,,,,,,,,,,,,,,,right,0.469048023224,participant9,25,59.9225663401,M,trial,2017_May_27_1221,
,,0.36,"[6.75, 0]",/sounds/legit/right100.wav,,,,,,,,,5,4,179,17,,,,,,,,,,,,,,,right,0.168210029602,participant9,25,59.9225663401,M,trial,2017_May_27_1221,
,,0.49,"[0, 0]",/sounds/legit/equal.wav,,,,,,,,,5,5,180,3,,,,,,,,,,,,,,,right,0.218724966049,participant9,25,59.9225663401,M,trial,2017_May_27_1221,
,,0.62,"[4.5, 0]",/sounds/legit/right70.wav,,,,,,,,,5,6,181,14,,,,,,,,,,,,,,,right,0.0512759685516,participant9,25,59.9225663401,M,trial,2017_May_27_1221,
,,0.49,"[0, 0]",/sounds/legit/equal.wav,,,,,,,,,5,7,182,3,,,,,,,,,,,,,,,right,0.0682308673859,participant9,25,59.9225663401,M,trial,2017_May_27_1221,
,,0.1,"[6.75, 0]",/sounds/legit/right100.wav,,,,,,,,,5,8,183,15,,,,,,,,,,,,,,,right,0.0683031082153,participant9,25,59.9225663401,M,trial,2017_May_27_1221,
,,0.49,"[2.25, 0]",/sounds/legit/right35.wav,,,,,,,,,5,9,184,8,,,,,,,,,,,,,,,right,0.0681581497192,participant9,25,59.9225663401,M,trial,2017_May_27_1221,
,,0.49,"[-4.5, 0]",/sounds/legit/left70.wav,,,,,,,,,5,10,185,28,,,,,,,,,,,,,,,left,0.151346921921,participant9,25,59.9225663401,M,trial,2017_May_27_1221,
,,0.36,"[-4.5, 0]",/sounds/legit/left70.wav,,,,,,,,,5,11,186,27,,,,,,,,,,,,,,,left,0.168454885483,participant9,25,59.9225663401,M,trial,2017_May_27_1221,
,,0.1,"[-2.25, 0]",/sounds/legit/left35.wav,,,,,,,,,5,12,187,20,,,,,,,,,,,,,,,left,0.218792915344,participant9,25,59.9225663401,M,trial,2017_May_27_1221,
,,0.36,"[0, 0]",/sounds/legit/equal.wav,,,,,,,,,5,13,188,2,,,,,,,,,,,,,,,right,0.169486999512,participant9,25,59.9225663401,M,trial,2017_May_27_1221,
,,0.36,"[-6.75, 0]",/sounds/legit/left100.wav,,,,,,,,,5,14,189,32,,,,,,,,,,,,,,,left,0.101620197296,participant9,25,59.9225663401,M,trial,2017_May_27_1221,
,,0.62,"[6.75, 0]",/sounds/legit/right100.wav,,,,,,,,,5,15,190,19,,,,,,,,,,,,,,,right,0.201972961426,participant9,25,59.9225663401,M,trial,2017_May_27_1221,
,,0.23,"[4.5, 0]",/sounds/legit/right70.wav,,,,,,,,,5,16,191,11,,,,,,,,,,,,,,,right,0.218454122543,participant9,25,59.9225663401,M,trial,2017_May_27_1221,
,,0.23,"[6.75, 0]",/sounds/legit/right100.wav,,,,,,,,,5,17,192,16,,,,,,,,,,,,,,,right,0.585988998413,participant9,25,59.9225663401,M,trial,2017_May_27_1221,
,,0.49,"[-6.75, 0]",/sounds/legit/left100.wav,,,,,,,,,5,18,193,33,,,,,,,,,,,,,,,left,0.13498711586,participant9,25,59.9225663401,M,trial,2017_May_27_1221,
,,0.62,"[-4.5, 0]",/sounds/legit/left70.wav,,,,,,,,,5,19,194,29,,,,,,,,,,,,,,,left,0.0682990550995,participant9,25,59.9225663401,M,trial,2017_May_27_1221,
,,0.49,"[4.5, 0]",/sounds/legit/right70.wav,,,,,,,,,5,20,195,13,,,,,,,,,,,,,,,right,0.0514740943909,participant9,25,59.9225663401,M,trial,2017_May_27_1221,
,,0.49,"[0, 0]",/sounds/legit/equal.wav,,,,,,,,,5,21,196,3,,,,,,,,,,,,,,,right,0.218504905701,participant9,25,59.9225663401,M,trial,2017_May_27_1221,
,,0.36,"[2.25, 0]",/sounds/legit/right35.wav,,,,,,,,,5,22,197,7,,,,,,,,,,,,,,,right,0.184952974319,participant9,25,59.9225663401,M,trial,2017_May_27_1221,
,,0.62,"[2.25, 0]",/sounds/legit/right35.wav,,,,,,,,,5,23,198,9,,,,,,,,,,,,,,,right,0.703148126602,participant9,25,59.9225663401,M,trial,2017_May_27_1221,
,,0.49,"[4.5, 0]",/sounds/legit/right70.wav,,,,,,,,,5,24,199,13,,,,,,,,,,,,,,,right,0.135336875916,participant9,25,59.9225663401,M,trial,2017_May_27_1221,
,,0.36,"[0, 0]",/sounds/legit/equal.wav,,,,,,,,,5,25,200,2,,,,,,,,,,,,,,,right,0.151627779007,participant9,25,59.9225663401,M,trial,2017_May_27_1221,
,,0.1,"[-2.25, 0]",/sounds/legit/left35.wav,,,,,,,,,5,26,201,20,,,,,,,,,,,,,,,left,0.168548822403,participant9,25,59.9225663401,M,trial,2017_May_27_1221,
,,0.23,"[-6.75, 0]",/sounds/legit/left100.wav,,,,,,,,,5,27,202,31,,,,,,,,,,,,,,,left,0.168298959732,participant9,25,59.9225663401,M,trial,2017_May_27_1221,
,,0.23,"[-4.5, 0]",/sounds/legit/left70.wav,,,,,,,,,5,28,203,26,,,,,,,,,,,,,,,left,0.017884016037,participant9,25,59.9225663401,M,trial,2017_May_27_1221,
,,0.49,"[-2.25, 0]",/sounds/legit/left35.wav,,,,,,,,,5,29,204,23,,,,,,,,,,,,,,,left,0.101783037186,participant9,25,59.9225663401,M,trial,2017_May_27_1221,
,,0.1,"[-2.25, 0]",/sounds/legit/left35.wav,,,,,,,,,5,30,205,20,,,,,,,,,,,,,,,left,0.135040044785,participant9,25,59.9225663401,M,trial,2017_May_27_1221,
,,0.1,"[0, 0]",/sounds/legit/equal.wav,,,,,,,,,5,31,206,0,,,,,,,,,,,,,,,right,0.201618909836,participant9,25,59.9225663401,M,trial,2017_May_27_1221,
,,0.23,"[-6.75, 0]",/sounds/legit/left100.wav,,,,,,,,,5,32,207,31,,,,,,,,,,,,,,,left,0.185164213181,participant9,25,59.9225663401,M,trial,2017_May_27_1221,
,,0.62,"[-6.75, 0]",/sounds/legit/left100.wav,,,,,,,,,5,33,208,34,,,,,,,,,,,,,,,left,0.151679039001,participant9,25,59.9225663401,M,trial,2017_May_27_1221,
,,0.49,"[-2.25, 0]",/sounds/legit/left35.wav,,,,,,,,,5,34,209,23,,,,,,,,,,,,,,,left,0.502186059952,participant9,25,59.9225663401,M,trial,2017_May_27_1221,
,,0.23,"[-6.75, 0]",/sounds/legit/left100.wav,,,,,,,,,6,0,210,31,,,,,,,,,,,,,,,left,0.118274927139,participant9,25,59.9225663401,M,trial,2017_May_27_1221,
,,0.23,"[4.5, 0]",/sounds/legit/right70.wav,,,,,,,,,6,1,211,11,,,,,,,,,,,,,,,right,0.068167924881,participant9,25,59.9225663401,M,trial,2017_May_27_1221,
,,0.36,"[6.75, 0]",/sounds/legit/right100.wav,,,,,,,,,6,2,212,17,,,,,,,,,,,,,,,right,0.20083117485,participant9,25,59.9225663401,M,trial,2017_May_27_1221,
,,0.23,"[-2.25, 0]",/sounds/legit/left35.wav,,,,,,,,,6,3,213,21,,,,,,,,,,,,,,,left,0.151465177536,participant9,25,59.9225663401,M,trial,2017_May_27_1221,
,,0.23,"[2.25, 0]",/sounds/legit/right35.wav,,,,,,,,,6,4,214,6,,,,,,,,,,,,,,,right,0.268483161926,participant9,25,59.9225663401,M,trial,2017_May_27_1221,
,,0.1,"[4.5, 0]",/sounds/legit/right70.wav,,,,,,,,,6,5,215,10,,,,,,,,,,,,,,,right,0.151748895645,participant9,25,59.9225663401,M,trial,2017_May_27_1221,
,,0.23,"[-4.5, 0]",/sounds/legit/left70.wav,,,,,,,,,6,6,216,26,,,,,,,,,,,,,,,left,0.969780921936,participant9,25,59.9225663401,M,trial,2017_May_27_1221,
,,0.49,"[-6.75, 0]",/sounds/legit/left100.wav,,,,,,,,,6,7,217,33,,,,,,,,,,,,,,,left,0.0680911540985,participant9,25,59.9225663401,M,trial,2017_May_27_1221,
,,0.1,"[6.75, 0]",/sounds/legit/right100.wav,,,,,,,,,6,8,218,15,,,,,,,,,,,,,,,right,0.00129890441895,participant9,25,59.9225663401,M,trial,2017_May_27_1221,
,,0.36,"[6.75, 0]",/sounds/legit/right100.wav,,,,,,,,,6,9,219,17,,,,,,,,,,,,,,,right,0.00131106376648,participant9,25,59.9225663401,M,trial,2017_May_27_1221,
,,0.62,"[-4.5, 0]",/sounds/legit/left70.wav,,,,,,,,,6,10,220,29,,,,,,,,,,,,,,,left,0.0348188877106,participant9,25,59.9225663401,M,trial,2017_May_27_1221,
,,0.23,"[-6.75, 0]",/sounds/legit/left100.wav,,,,,,,,,6,11,221,31,,,,,,,,,,,,,,,left,0.518937110901,participant9,25,59.9225663401,M,trial,2017_May_27_1221,
,,0.49,"[4.5, 0]",/sounds/legit/right70.wav,,,,,,,,,6,12,222,13,,,,,,,,,,,,,,,right,0.101651906967,participant9,25,59.9225663401,M,trial,2017_May_27_1221,
,,0.49,"[2.25, 0]",/sounds/legit/right35.wav,,,,,,,,,6,13,223,8,,,,,,,,,,,,,,,right,0.0848069190979,participant9,25,59.9225663401,M,trial,2017_May_27_1221,
,,0.36,"[0, 0]",/sounds/legit/equal.wav,,,,,,,,,6,14,224,2,,,,,,,,,,,,,,,right,0.0847699642181,participant9,25,59.9225663401,M,trial,2017_May_27_1221,
,,0.49,"[-2.25, 0]",/sounds/legit/left35.wav,,,,,,,,,6,15,225,23,,,,,,,,,,,,,,,left,0.118119001389,participant9,25,59.9225663401,M,trial,2017_May_27_1221,
,,0.49,"[0, 0]",/sounds/legit/equal.wav,,,,,,,,,6,16,226,3,,,,,,,,,,,,,,,right,0.285421848297,participant9,25,59.9225663401,M,trial,2017_May_27_1221,
