path,name,noise,location,correspondingAudio,audiotrials.thisRepN,audiotrials.thisTrialN,audiotrials.thisN,audiotrials.thisIndex,visualTrials.thisRepN,visualTrials.thisTrialN,visualTrials.thisN,visualTrials.thisIndex,combinedTrials.thisRepN,combinedTrials.thisTrialN,combinedTrials.thisN,combinedTrials.thisIndex,WelcomeKey.keys,WelcomeKey.rt,key_resp_2.keys,key_resp_2.rt,AudioInstrAccept.keys,AudioInstrAccept.rt,LeftorRight.keys,LeftorRight.rt,VisualBlock.keys,VisualBlock.rt,VisualDecision.keys,VisualDecision.rt,CombinedAccept.keys,CombinedAccept.rt,CombComparisonResponse.keys,CombComparisonResponse.rt,participant,age,frameRate,sex,expName,date,
,,,,,,,,,,,,,,,,,space,41.9156930447,,,,,,,,,,,,,,,participant3,24,59.7303925059,Female,trial,2017_May_25_1532,
,,,,,,,,,,,,,,,,,,,space,15.1847729683,,,,,,,,,,,,,participant3,24,59.7303925059,Female,trial,2017_May_25_1532,
,,,,,,,,,,,,,,,,,,,,,space,27.227241993,,,,,,,,,,,participant3,24,59.7303925059,Female,trial,2017_May_25_1532,
/sounds/legit/left100.wav,left100,,,,0,0,0,0,,,,,,,,,,,,,,,left,0.903396844864,,,,,,,,,participant3,24,59.7303925059,Female,trial,2017_May_25_1532,
/sounds/legit/left70.wav,left60,,,,0,1,1,1,,,,,,,,,,,,,,,left,0.886515140533,,,,,,,,,participant3,24,59.7303925059,Female,trial,2017_May_25_1532,
/sounds/legit/right35.wav,right30,,,,0,2,2,3,,,,,,,,,,,,,,,right,0.820069074631,,,,,,,,,participant3,24,59.7303925059,Female,trial,2017_May_25_1532,
/sounds/legit/left35.wav,left30,,,,0,3,3,2,,,,,,,,,,,,,,,left,1.5714468956,,,,,,,,,participant3,24,59.7303925059,Female,trial,2017_May_25_1532,
/sounds/legit/right100.wav,right100,,,,0,4,4,5,,,,,,,,,,,,,,,right,0.80216884613,,,,,,,,,participant3,24,59.7303925059,Female,trial,2017_May_25_1532,
/sounds/legit/right70.wav,right60,,,,0,5,5,4,,,,,,,,,,,,,,,right,1.12020206451,,,,,,,,,participant3,24,59.7303925059,Female,trial,2017_May_25_1532,
/sounds/legit/right100.wav,right100,,,,1,0,6,5,,,,,,,,,,,,,,,right,0.686057090759,,,,,,,,,participant3,24,59.7303925059,Female,trial,2017_May_25_1532,
/sounds/legit/left35.wav,left30,,,,1,1,7,2,,,,,,,,,,,,,,,left,1.27075505257,,,,,,,,,participant3,24,59.7303925059,Female,trial,2017_May_25_1532,
/sounds/legit/right35.wav,right30,,,,1,2,8,3,,,,,,,,,,,,,,,left,3.67578792572,,,,,,,,,participant3,24,59.7303925059,Female,trial,2017_May_25_1532,
/sounds/legit/left100.wav,left100,,,,1,3,9,0,,,,,,,,,,,,,,,left,1.22039079666,,,,,,,,,participant3,24,59.7303925059,Female,trial,2017_May_25_1532,
/sounds/legit/right70.wav,right60,,,,1,4,10,4,,,,,,,,,,,,,,,right,1.1035399437,,,,,,,,,participant3,24,59.7303925059,Female,trial,2017_May_25_1532,
/sounds/legit/left70.wav,left60,,,,1,5,11,1,,,,,,,,,,,,,,,left,1.23659491539,,,,,,,,,participant3,24,59.7303925059,Female,trial,2017_May_25_1532,
/sounds/legit/left100.wav,left100,,,,2,0,12,0,,,,,,,,,,,,,,,left,1.02020406723,,,,,,,,,participant3,24,59.7303925059,Female,trial,2017_May_25_1532,
/sounds/legit/left70.wav,left60,,,,2,1,13,1,,,,,,,,,,,,,,,left,0.853183984756,,,,,,,,,participant3,24,59.7303925059,Female,trial,2017_May_25_1532,
/sounds/legit/right35.wav,right30,,,,2,2,14,3,,,,,,,,,,,,,,,right,0.769766807556,,,,,,,,,participant3,24,59.7303925059,Female,trial,2017_May_25_1532,
/sounds/legit/right70.wav,right60,,,,2,3,15,4,,,,,,,,,,,,,,,right,1.17018604279,,,,,,,,,participant3,24,59.7303925059,Female,trial,2017_May_25_1532,
/sounds/legit/right100.wav,right100,,,,2,4,16,5,,,,,,,,,,,,,,,right,0.986752986908,,,,,,,,,participant3,24,59.7303925059,Female,trial,2017_May_25_1532,
/sounds/legit/left35.wav,left30,,,,2,5,17,2,,,,,,,,,,,,,,,left,0.803134918213,,,,,,,,,participant3,24,59.7303925059,Female,trial,2017_May_25_1532,
/sounds/legit/left100.wav,left100,,,,3,0,18,0,,,,,,,,,,,,,,,left,0.969971895218,,,,,,,,,participant3,24,59.7303925059,Female,trial,2017_May_25_1532,
/sounds/legit/right100.wav,right100,,,,3,1,19,5,,,,,,,,,,,,,,,right,0.635928869247,,,,,,,,,participant3,24,59.7303925059,Female,trial,2017_May_25_1532,
/sounds/legit/right35.wav,right30,,,,3,2,20,3,,,,,,,,,,,,,,,left,0.652729988098,,,,,,,,,participant3,24,59.7303925059,Female,trial,2017_May_25_1532,
/sounds/legit/right70.wav,right60,,,,3,3,21,4,,,,,,,,,,,,,,,right,1.70512509346,,,,,,,,,participant3,24,59.7303925059,Female,trial,2017_May_25_1532,
/sounds/legit/left70.wav,left60,,,,3,4,22,1,,,,,,,,,,,,,,,left,0.669327974319,,,,,,,,,participant3,24,59.7303925059,Female,trial,2017_May_25_1532,
/sounds/legit/left35.wav,left30,,,,3,5,23,2,,,,,,,,,,,,,,,left,0.735929012299,,,,,,,,,participant3,24,59.7303925059,Female,trial,2017_May_25_1532,
/sounds/legit/right70.wav,right60,,,,4,0,24,4,,,,,,,,,,,,,,,right,0.836460113525,,,,,,,,,participant3,24,59.7303925059,Female,trial,2017_May_25_1532,
/sounds/legit/left35.wav,left30,,,,4,1,25,2,,,,,,,,,,,,,,,left,0.886523008347,,,,,,,,,participant3,24,59.7303925059,Female,trial,2017_May_25_1532,
/sounds/legit/left70.wav,left60,,,,4,2,26,1,,,,,,,,,,,,,,,left,0.76966881752,,,,,,,,,participant3,24,59.7303925059,Female,trial,2017_May_25_1532,
/sounds/legit/left100.wav,left100,,,,4,3,27,0,,,,,,,,,,,,,,,left,0.769495010376,,,,,,,,,participant3,24,59.7303925059,Female,trial,2017_May_25_1532,
/sounds/legit/right35.wav,right30,,,,4,4,28,3,,,,,,,,,,,,,,,right,2.99108481407,,,,,,,,,participant3,24,59.7303925059,Female,trial,2017_May_25_1532,
/sounds/legit/right100.wav,right100,,,,4,5,29,5,,,,,,,,,,,,,,,right,0.585871934891,,,,,,,,,participant3,24,59.7303925059,Female,trial,2017_May_25_1532,
/sounds/legit/left100.wav,left100,,,,5,0,30,0,,,,,,,,,,,,,,,left,0.652747869492,,,,,,,,,participant3,24,59.7303925059,Female,trial,2017_May_25_1532,
/sounds/legit/right70.wav,right60,,,,5,1,31,4,,,,,,,,,,,,,,,right,0.635995864868,,,,,,,,,participant3,24,59.7303925059,Female,trial,2017_May_25_1532,
/sounds/legit/left70.wav,left60,,,,5,2,32,1,,,,,,,,,,,,,,,left,1.02010893822,,,,,,,,,participant3,24,59.7303925059,Female,trial,2017_May_25_1532,
/sounds/legit/right100.wav,right100,,,,5,3,33,5,,,,,,,,,,,,,,,right,0.586019039154,,,,,,,,,participant3,24,59.7303925059,Female,trial,2017_May_25_1532,
/sounds/legit/right35.wav,right30,,,,5,4,34,3,,,,,,,,,,,,,,,left,0.886610031128,,,,,,,,,participant3,24,59.7303925059,Female,trial,2017_May_25_1532,
/sounds/legit/left35.wav,left30,,,,5,5,35,2,,,,,,,,,,,,,,,left,0.585991859436,,,,,,,,,participant3,24,59.7303925059,Female,trial,2017_May_25_1532,
/sounds/legit/right35.wav,right30,,,,6,0,36,3,,,,,,,,,,,,,,,left,1.70399308205,,,,,,,,,participant3,24,59.7303925059,Female,trial,2017_May_25_1532,
/sounds/legit/left100.wav,left100,,,,6,1,37,0,,,,,,,,,,,,,,,left,0.669229984283,,,,,,,,,participant3,24,59.7303925059,Female,trial,2017_May_25_1532,
/sounds/legit/right70.wav,right60,,,,6,2,38,4,,,,,,,,,,,,,,,right,0.619272947311,,,,,,,,,participant3,24,59.7303925059,Female,trial,2017_May_25_1532,
/sounds/legit/left35.wav,left30,,,,6,3,39,2,,,,,,,,,,,,,,,left,0.652709960938,,,,,,,,,participant3,24,59.7303925059,Female,trial,2017_May_25_1532,
/sounds/legit/right100.wav,right100,,,,6,4,40,5,,,,,,,,,,,,,,,right,0.502519130707,,,,,,,,,participant3,24,59.7303925059,Female,trial,2017_May_25_1532,
/sounds/legit/left70.wav,left60,,,,6,5,41,1,,,,,,,,,,,,,,,left,0.63628911972,,,,,,,,,participant3,24,59.7303925059,Female,trial,2017_May_25_1532,
/sounds/legit/left70.wav,left60,,,,7,0,42,1,,,,,,,,,,,,,,,left,0.65302491188,,,,,,,,,participant3,24,59.7303925059,Female,trial,2017_May_25_1532,
/sounds/legit/left100.wav,left100,,,,7,1,43,0,,,,,,,,,,,,,,,left,0.469192028046,,,,,,,,,participant3,24,59.7303925059,Female,trial,2017_May_25_1532,
/sounds/legit/left35.wav,left30,,,,7,2,44,2,,,,,,,,,,,,,,,left,0.485711097717,,,,,,,,,participant3,24,59.7303925059,Female,trial,2017_May_25_1532,
/sounds/legit/right35.wav,right30,,,,7,3,45,3,,,,,,,,,,,,,,,left,0.90330696106,,,,,,,,,participant3,24,59.7303925059,Female,trial,2017_May_25_1532,
/sounds/legit/right70.wav,right60,,,,7,4,46,4,,,,,,,,,,,,,,,left,1.22068881989,,,,,,,,,participant3,24,59.7303925059,Female,trial,2017_May_25_1532,
/sounds/legit/right100.wav,right100,,,,7,5,47,5,,,,,,,,,,,,,,,right,0.469012975693,,,,,,,,,participant3,24,59.7303925059,Female,trial,2017_May_25_1532,
/sounds/legit/right70.wav,right60,,,,8,0,48,4,,,,,,,,,,,,,,,right,0.702834129333,,,,,,,,,participant3,24,59.7303925059,Female,trial,2017_May_25_1532,
/sounds/legit/right100.wav,right100,,,,8,1,49,5,,,,,,,,,,,,,,,right,0.619247913361,,,,,,,,,participant3,24,59.7303925059,Female,trial,2017_May_25_1532,
/sounds/legit/left100.wav,left100,,,,8,2,50,0,,,,,,,,,,,,,,,left,0.602589845657,,,,,,,,,participant3,24,59.7303925059,Female,trial,2017_May_25_1532,
/sounds/legit/left35.wav,left30,,,,8,3,51,2,,,,,,,,,,,,,,,left,0.602609872818,,,,,,,,,participant3,24,59.7303925059,Female,trial,2017_May_25_1532,
/sounds/legit/right35.wav,right30,,,,8,4,52,3,,,,,,,,,,,,,,,right,1.83861708641,,,,,,,,,participant3,24,59.7303925059,Female,trial,2017_May_25_1532,
/sounds/legit/left70.wav,left60,,,,8,5,53,1,,,,,,,,,,,,,,,left,0.636022090912,,,,,,,,,participant3,24,59.7303925059,Female,trial,2017_May_25_1532,
/sounds/legit/right70.wav,right60,,,,9,0,54,4,,,,,,,,,,,,,,,right,0.536026000977,,,,,,,,,participant3,24,59.7303925059,Female,trial,2017_May_25_1532,
/sounds/legit/left70.wav,left60,,,,9,1,55,1,,,,,,,,,,,,,,,left,0.585844993591,,,,,,,,,participant3,24,59.7303925059,Female,trial,2017_May_25_1532,
/sounds/legit/right35.wav,right30,,,,9,2,56,3,,,,,,,,,,,,,,,right,2.12245702744,,,,,,,,,participant3,24,59.7303925059,Female,trial,2017_May_25_1532,
/sounds/legit/left35.wav,left30,,,,9,3,57,2,,,,,,,,,,,,,,,left,0.652567148209,,,,,,,,,participant3,24,59.7303925059,Female,trial,2017_May_25_1532,
/sounds/legit/left100.wav,left100,,,,9,4,58,0,,,,,,,,,,,,,,,left,0.468767166138,,,,,,,,,participant3,24,59.7303925059,Female,trial,2017_May_25_1532,
/sounds/legit/right100.wav,right100,,,,9,5,59,5,,,,,,,,,,,,,,,right,0.418946027756,,,,,,,,,participant3,24,59.7303925059,Female,trial,2017_May_25_1532,
,,,,,,,,,,,,,,,,,,,,,,,,,space,32.2380661964,,,,,,,participant3,24,59.7303925059,Female,trial,2017_May_25_1532,
,,0.36,"[0, 0]",/sounds/legit/equal.wav,,,,,0,0,0,2,,,,,,,,,,,,,,,left,1.68830108643,,,,,participant3,24,59.7303925059,Female,trial,2017_May_25_1532,
,,0.1,"[-4.5, 0]",/sounds/legit/left60.wav,,,,,0,1,1,25,,,,,,,,,,,,,,,left,0.986828804016,,,,,participant3,24,59.7303925059,Female,trial,2017_May_25_1532,
,,0.49,"[-2.25, 0]",/sounds/legit/left30.wav,,,,,0,2,2,23,,,,,,,,,,,,,,,left,0.88666009903,,,,,participant3,24,59.7303925059,Female,trial,2017_May_25_1532,
,,0.1,"[-2.25, 0]",/sounds/legit/left30.wav,,,,,0,3,3,20,,,,,,,,,,,,,,,left,0.669287919998,,,,,participant3,24,59.7303925059,Female,trial,2017_May_25_1532,
,,0.1,"[0, 0]",/sounds/legit/equal.wav,,,,,0,4,4,0,,,,,,,,,,,,,,,left,0.836426019669,,,,,participant3,24,59.7303925059,Female,trial,2017_May_25_1532,
,,0.62,"[2.25, 0]",/sounds/legit/right30.wav,,,,,0,5,5,9,,,,,,,,,,,,,,,right,0.736293077469,,,,,participant3,24,59.7303925059,Female,trial,2017_May_25_1532,
,,0.36,"[-6.75, 0]",/sounds/legit/left100.wav,,,,,0,6,6,32,,,,,,,,,,,,,,,left,0.669485092163,,,,,participant3,24,59.7303925059,Female,trial,2017_May_25_1532,
,,0.62,"[4.5, 0]",/sounds/legit/right60.wav,,,,,0,7,7,14,,,,,,,,,,,,,,,right,0.519172906876,,,,,participant3,24,59.7303925059,Female,trial,2017_May_25_1532,
,,0.23,"[4.5, 0]",/sounds/legit/right60.wav,,,,,0,8,8,11,,,,,,,,,,,,,,,right,0.569378852844,,,,,participant3,24,59.7303925059,Female,trial,2017_May_25_1532,
,,0.62,"[-2.25, 0]",/sounds/legit/left30.wav,,,,,0,9,9,24,,,,,,,,,,,,,,,left,0.719478845596,,,,,participant3,24,59.7303925059,Female,trial,2017_May_25_1532,
,,0.36,"[4.5, 0]",/sounds/legit/right60.wav,,,,,0,10,10,12,,,,,,,,,,,,,,,right,0.601722955704,,,,,participant3,24,59.7303925059,Female,trial,2017_May_25_1532,
,,0.23,"[-2.25, 0]",/sounds/legit/left30.wav,,,,,0,11,11,21,,,,,,,,,,,,,,,left,0.635952949524,,,,,participant3,24,59.7303925059,Female,trial,2017_May_25_1532,
,,0.36,"[-2.25, 0]",/sounds/legit/left30.wav,,,,,0,12,12,22,,,,,,,,,,,,,,,left,1.30423402786,,,,,participant3,24,59.7303925059,Female,trial,2017_May_25_1532,
,,0.1,"[4.5, 0]",/sounds/legit/right60.wav,,,,,0,13,13,10,,,,,,,,,,,,,,,right,0.469013929367,,,,,participant3,24,59.7303925059,Female,trial,2017_May_25_1532,
,,0.36,"[2.25, 0]",/sounds/legit/right30.wav,,,,,0,14,14,7,,,,,,,,,,,,,,,right,0.536054849625,,,,,participant3,24,59.7303925059,Female,trial,2017_May_25_1532,
,,0.62,"[0, 0]",/sounds/legit/equal.wav,,,,,0,15,15,4,,,,,,,,,,,,,,,right,1.15391612053,,,,,participant3,24,59.7303925059,Female,trial,2017_May_25_1532,
,,0.36,"[6.75, 0]",/sounds/legit/right100.wav,,,,,0,16,16,17,,,,,,,,,,,,,,,right,0.686299085617,,,,,participant3,24,59.7303925059,Female,trial,2017_May_25_1532,
,,0.49,"[-6.75, 0]",/sounds/legit/left100.wav,,,,,0,17,17,33,,,,,,,,,,,,,,,left,0.869807958603,,,,,participant3,24,59.7303925059,Female,trial,2017_May_25_1532,
,,0.23,"[2.25, 0]",/sounds/legit/right30.wav,,,,,0,18,18,6,,,,,,,,,,,,,,,right,0.752898931503,,,,,participant3,24,59.7303925059,Female,trial,2017_May_25_1532,
,,0.49,"[2.25, 0]",/sounds/legit/right30.wav,,,,,0,19,19,8,,,,,,,,,,,,,,,right,1.05367302895,,,,,participant3,24,59.7303925059,Female,trial,2017_May_25_1532,
,,0.49,"[-4.5, 0]",/sounds/legit/left60.wav,,,,,0,20,20,28,,,,,,,,,,,,,,,left,0.870090007782,,,,,participant3,24,59.7303925059,Female,trial,2017_May_25_1532,
,,0.23,"[-6.75, 0]",/sounds/legit/left100.wav,,,,,0,21,21,31,,,,,,,,,,,,,,,left,1.28744292259,,,,,participant3,24,59.7303925059,Female,trial,2017_May_25_1532,
,,0.1,"[2.25, 0]",/sounds/legit/right30.wav,,,,,0,22,22,5,,,,,,,,,,,,,,,right,0.352279186249,,,,,participant3,24,59.7303925059,Female,trial,2017_May_25_1532,
,,0.62,"[-6.75, 0]",/sounds/legit/left100.wav,,,,,0,23,23,34,,,,,,,,,,,,,,,left,0.786396980286,,,,,participant3,24,59.7303925059,Female,trial,2017_May_25_1532,
,,0.36,"[-4.5, 0]",/sounds/legit/left60.wav,,,,,0,24,24,27,,,,,,,,,,,,,,,left,0.435685157776,,,,,participant3,24,59.7303925059,Female,trial,2017_May_25_1532,
,,0.23,"[6.75, 0]",/sounds/legit/right100.wav,,,,,0,25,25,16,,,,,,,,,,,,,,,right,0.402136087418,,,,,participant3,24,59.7303925059,Female,trial,2017_May_25_1532,
,,0.62,"[6.75, 0]",/sounds/legit/right100.wav,,,,,0,26,26,19,,,,,,,,,,,,,,,right,0.886699914932,,,,,participant3,24,59.7303925059,Female,trial,2017_May_25_1532,
,,0.23,"[0, 0]",/sounds/legit/equal.wav,,,,,0,27,27,1,,,,,,,,,,,,,,,left,0.83633518219,,,,,participant3,24,59.7303925059,Female,trial,2017_May_25_1532,
,,0.1,"[-6.75, 0]",/sounds/legit/left100.wav,,,,,0,28,28,30,,,,,,,,,,,,,,,left,0.686432123184,,,,,participant3,24,59.7303925059,Female,trial,2017_May_25_1532,
,,0.49,"[6.75, 0]",/sounds/legit/right100.wav,,,,,0,29,29,18,,,,,,,,,,,,,,,right,0.335290193558,,,,,participant3,24,59.7303925059,Female,trial,2017_May_25_1532,
,,0.23,"[-4.5, 0]",/sounds/legit/left60.wav,,,,,0,30,30,26,,,,,,,,,,,,,,,left,0.502659082413,,,,,participant3,24,59.7303925059,Female,trial,2017_May_25_1532,
,,0.49,"[4.5, 0]",/sounds/legit/right60.wav,,,,,0,31,31,13,,,,,,,,,,,,,,,right,0.385271072388,,,,,participant3,24,59.7303925059,Female,trial,2017_May_25_1532,
,,0.49,"[0, 0]",/sounds/legit/equal.wav,,,,,0,32,32,3,,,,,,,,,,,,,,,right,0.535756826401,,,,,participant3,24,59.7303925059,Female,trial,2017_May_25_1532,
,,0.62,"[-4.5, 0]",/sounds/legit/left60.wav,,,,,0,33,33,29,,,,,,,,,,,,,,,left,1.93879103661,,,,,participant3,24,59.7303925059,Female,trial,2017_May_25_1532,
,,0.1,"[6.75, 0]",/sounds/legit/right100.wav,,,,,0,34,34,15,,,,,,,,,,,,,,,right,0.519528150558,,,,,participant3,24,59.7303925059,Female,trial,2017_May_25_1532,
,,0.1,"[0, 0]",/sounds/legit/equal.wav,,,,,1,0,35,0,,,,,,,,,,,,,,,left,1.28740596771,,,,,participant3,24,59.7303925059,Female,trial,2017_May_25_1532,
,,0.62,"[-4.5, 0]",/sounds/legit/left60.wav,,,,,1,1,36,29,,,,,,,,,,,,,,,left,0.518769025803,,,,,participant3,24,59.7303925059,Female,trial,2017_May_25_1532,
,,0.36,"[6.75, 0]",/sounds/legit/right100.wav,,,,,1,2,37,17,,,,,,,,,,,,,,,right,0.302041053772,,,,,participant3,24,59.7303925059,Female,trial,2017_May_25_1532,
,,0.1,"[-2.25, 0]",/sounds/legit/left30.wav,,,,,1,3,38,20,,,,,,,,,,,,,,,left,0.302122831345,,,,,participant3,24,59.7303925059,Female,trial,2017_May_25_1532,
,,0.36,"[-6.75, 0]",/sounds/legit/left100.wav,,,,,1,4,39,32,,,,,,,,,,,,,,,left,0.168658971786,,,,,participant3,24,59.7303925059,Female,trial,2017_May_25_1532,
,,0.62,"[2.25, 0]",/sounds/legit/right30.wav,,,,,1,5,40,9,,,,,,,,,,,,,,,right,0.318453073502,,,,,participant3,24,59.7303925059,Female,trial,2017_May_25_1532,
,,0.49,"[6.75, 0]",/sounds/legit/right100.wav,,,,,1,6,41,18,,,,,,,,,,,,,,,right,0.16858792305,,,,,participant3,24,59.7303925059,Female,trial,2017_May_25_1532,
,,0.23,"[-2.25, 0]",/sounds/legit/left30.wav,,,,,1,7,42,21,,,,,,,,,,,,,,,left,0.18509888649,,,,,participant3,24,59.7303925059,Female,trial,2017_May_25_1532,
,,0.49,"[2.25, 0]",/sounds/legit/right30.wav,,,,,1,8,43,8,,,,,,,,,,,,,,,right,0.11824798584,,,,,participant3,24,59.7303925059,Female,trial,2017_May_25_1532,
,,0.62,"[-2.25, 0]",/sounds/legit/left30.wav,,,,,1,9,44,24,,,,,,,,,,,,,,,left,0.118347167969,,,,,participant3,24,59.7303925059,Female,trial,2017_May_25_1532,
,,0.62,"[4.5, 0]",/sounds/legit/right60.wav,,,,,1,10,45,14,,,,,,,,,,,,,,,right,0.135017871857,,,,,participant3,24,59.7303925059,Female,trial,2017_May_25_1532,
,,0.1,"[4.5, 0]",/sounds/legit/right60.wav,,,,,1,11,46,10,,,,,,,,,,,,,,,right,0.135004997253,,,,,participant3,24,59.7303925059,Female,trial,2017_May_25_1532,
,,0.23,"[4.5, 0]",/sounds/legit/right60.wav,,,,,1,12,47,11,,,,,,,,,,,,,,,right,0.134906053543,,,,,participant3,24,59.7303925059,Female,trial,2017_May_25_1532,
,,0.1,"[6.75, 0]",/sounds/legit/right100.wav,,,,,1,13,48,15,,,,,,,,,,,,,,,right,0.0514130592346,,,,,participant3,24,59.7303925059,Female,trial,2017_May_25_1532,
,,0.1,"[-6.75, 0]",/sounds/legit/left100.wav,,,,,1,14,49,30,,,,,,,,,,,,,,,left,0.134859085083,,,,,participant3,24,59.7303925059,Female,trial,2017_May_25_1532,
,,0.36,"[-2.25, 0]",/sounds/legit/left30.wav,,,,,1,15,50,22,,,,,,,,,,,,,,,left,0.218383789062,,,,,participant3,24,59.7303925059,Female,trial,2017_May_25_1532,
,,0.1,"[2.25, 0]",/sounds/legit/right30.wav,,,,,1,16,51,5,,,,,,,,,,,,,,,right,0.0847179889679,,,,,participant3,24,59.7303925059,Female,trial,2017_May_25_1532,
,,0.62,"[-6.75, 0]",/sounds/legit/left100.wav,,,,,1,17,52,34,,,,,,,,,,,,,,,left,0.16845703125,,,,,participant3,24,59.7303925059,Female,trial,2017_May_25_1532,
,,0.36,"[0, 0]",/sounds/legit/equal.wav,,,,,1,18,53,2,,,,,,,,,,,,,,,right,0.15181684494,,,,,participant3,24,59.7303925059,Female,trial,2017_May_25_1532,
,,0.49,"[-6.75, 0]",/sounds/legit/left100.wav,,,,,1,19,54,33,,,,,,,,,,,,,,,left,0.20180106163,,,,,participant3,24,59.7303925059,Female,trial,2017_May_25_1532,
,,0.49,"[-4.5, 0]",/sounds/legit/left60.wav,,,,,1,20,55,28,,,,,,,,,,,,,,,left,0.134943962097,,,,,participant3,24,59.7303925059,Female,trial,2017_May_25_1532,
,,0.36,"[4.5, 0]",/sounds/legit/right60.wav,,,,,1,21,56,12,,,,,,,,,,,,,,,right,0.118676185608,,,,,participant3,24,59.7303925059,Female,trial,2017_May_25_1532,
,,0.62,"[6.75, 0]",/sounds/legit/right100.wav,,,,,1,22,57,19,,,,,,,,,,,,,,,right,0.185204982758,,,,,participant3,24,59.7303925059,Female,trial,2017_May_25_1532,
,,0.23,"[2.25, 0]",/sounds/legit/right30.wav,,,,,1,23,58,6,,,,,,,,,,,,,,,right,0.0681879520416,,,,,participant3,24,59.7303925059,Female,trial,2017_May_25_1532,
,,0.23,"[-6.75, 0]",/sounds/legit/left100.wav,,,,,1,24,59,31,,,,,,,,,,,,,,,left,0.151650190353,,,,,participant3,24,59.7303925059,Female,trial,2017_May_25_1532,
,,0.23,"[6.75, 0]",/sounds/legit/right100.wav,,,,,1,25,60,16,,,,,,,,,,,,,,,right,0.0849080085754,,,,,participant3,24,59.7303925059,Female,trial,2017_May_25_1532,
,,0.23,"[0, 0]",/sounds/legit/equal.wav,,,,,1,26,61,1,,,,,,,,,,,,,,,left,0.452217102051,,,,,participant3,24,59.7303925059,Female,trial,2017_May_25_1532,
,,0.36,"[-4.5, 0]",/sounds/legit/left60.wav,,,,,1,27,62,27,,,,,,,,,,,,,,,left,0.252139091492,,,,,participant3,24,59.7303925059,Female,trial,2017_May_25_1532,
,,0.49,"[-2.25, 0]",/sounds/legit/left30.wav,,,,,1,28,63,23,,,,,,,,,,,,,,,left,0.285261869431,,,,,participant3,24,59.7303925059,Female,trial,2017_May_25_1532,
,,0.49,"[4.5, 0]",/sounds/legit/right60.wav,,,,,1,29,64,13,,,,,,,,,,,,,,,right,0.201814889908,,,,,participant3,24,59.7303925059,Female,trial,2017_May_25_1532,
,,0.62,"[0, 0]",/sounds/legit/equal.wav,,,,,1,30,65,4,,,,,,,,,,,,,,,right,0.118335008621,,,,,participant3,24,59.7303925059,Female,trial,2017_May_25_1532,
,,0.49,"[0, 0]",/sounds/legit/equal.wav,,,,,1,31,66,3,,,,,,,,,,,,,,,left,0.970238924026,,,,,participant3,24,59.7303925059,Female,trial,2017_May_25_1532,
,,0.1,"[-4.5, 0]",/sounds/legit/left60.wav,,,,,1,32,67,25,,,,,,,,,,,,,,,left,0.452431917191,,,,,participant3,24,59.7303925059,Female,trial,2017_May_25_1532,
,,0.23,"[-4.5, 0]",/sounds/legit/left60.wav,,,,,1,33,68,26,,,,,,,,,,,,,,,left,0.368712902069,,,,,participant3,24,59.7303925059,Female,trial,2017_May_25_1532,
,,0.36,"[2.25, 0]",/sounds/legit/right30.wav,,,,,1,34,69,7,,,,,,,,,,,,,,,right,0.302191972733,,,,,participant3,24,59.7303925059,Female,trial,2017_May_25_1532,
,,0.49,"[6.75, 0]",/sounds/legit/right100.wav,,,,,2,0,70,18,,,,,,,,,,,,,,,right,0.452171087265,,,,,participant3,24,59.7303925059,Female,trial,2017_May_25_1532,
,,0.1,"[0, 0]",/sounds/legit/equal.wav,,,,,2,1,71,0,,,,,,,,,,,,,,,left,0.936705112457,,,,,participant3,24,59.7303925059,Female,trial,2017_May_25_1532,
,,0.62,"[0, 0]",/sounds/legit/equal.wav,,,,,2,2,72,4,,,,,,,,,,,,,,,left,1.62147092819,,,,,participant3,24,59.7303925059,Female,trial,2017_May_25_1532,
,,0.36,"[-2.25, 0]",/sounds/legit/left30.wav,,,,,2,3,73,22,,,,,,,,,,,,,,,left,0.385627031326,,,,,participant3,24,59.7303925059,Female,trial,2017_May_25_1532,
,,0.62,"[6.75, 0]",/sounds/legit/right100.wav,,,,,2,4,74,19,,,,,,,,,,,,,,,right,1.87188792229,,,,,participant3,24,59.7303925059,Female,trial,2017_May_25_1532,
,,0.23,"[-2.25, 0]",/sounds/legit/left30.wav,,,,,2,5,75,21,,,,,,,,,,,,,,,left,0.302000999451,,,,,participant3,24,59.7303925059,Female,trial,2017_May_25_1532,
,,0.36,"[0, 0]",/sounds/legit/equal.wav,,,,,2,6,76,2,,,,,,,,,,,,,,,left,0.886536121368,,,,,participant3,24,59.7303925059,Female,trial,2017_May_25_1532,
,,0.23,"[0, 0]",/sounds/legit/equal.wav,,,,,2,7,77,1,,,,,,,,,,,,,,,left,0.702970981598,,,,,participant3,24,59.7303925059,Female,trial,2017_May_25_1532,
,,0.62,"[-6.75, 0]",/sounds/legit/left100.wav,,,,,2,8,78,34,,,,,,,,,,,,,,,left,0.569877147675,,,,,participant3,24,59.7303925059,Female,trial,2017_May_25_1532,
,,0.49,"[-6.75, 0]",/sounds/legit/left100.wav,,,,,2,9,79,33,,,,,,,,,,,,,,,left,0.352136850357,,,,,participant3,24,59.7303925059,Female,trial,2017_May_25_1532,
,,0.49,"[-4.5, 0]",/sounds/legit/left60.wav,,,,,2,10,80,28,,,,,,,,,,,,,,,left,0.33575296402,,,,,participant3,24,59.7303925059,Female,trial,2017_May_25_1532,
,,0.23,"[4.5, 0]",/sounds/legit/right60.wav,,,,,2,11,81,11,,,,,,,,,,,,,,,right,0.452271938324,,,,,participant3,24,59.7303925059,Female,trial,2017_May_25_1532,
,,0.1,"[2.25, 0]",/sounds/legit/right30.wav,,,,,2,12,82,5,,,,,,,,,,,,,,,right,0.368829011917,,,,,participant3,24,59.7303925059,Female,trial,2017_May_25_1532,
,,0.62,"[-4.5, 0]",/sounds/legit/left60.wav,,,,,2,13,83,29,,,,,,,,,,,,,,,left,0.402276992798,,,,,participant3,24,59.7303925059,Female,trial,2017_May_25_1532,
,,0.36,"[6.75, 0]",/sounds/legit/right100.wav,,,,,2,14,84,17,,,,,,,,,,,,,,,right,0.318765878677,,,,,participant3,24,59.7303925059,Female,trial,2017_May_25_1532,
,,0.49,"[-2.25, 0]",/sounds/legit/left30.wav,,,,,2,15,85,23,,,,,,,,,,,,,,,left,0.335407972336,,,,,participant3,24,59.7303925059,Female,trial,2017_May_25_1532,
,,0.36,"[2.25, 0]",/sounds/legit/right30.wav,,,,,2,16,86,7,,,,,,,,,,,,,,,right,0.268558979034,,,,,participant3,24,59.7303925059,Female,trial,2017_May_25_1532,
,,0.23,"[-6.75, 0]",/sounds/legit/left100.wav,,,,,2,17,87,31,,,,,,,,,,,,,,,left,0.118175983429,,,,,participant3,24,59.7303925059,Female,trial,2017_May_25_1532,
,,0.49,"[0, 0]",/sounds/legit/equal.wav,,,,,2,18,88,3,,,,,,,,,,,,,,,left,1.02021384239,,,,,participant3,24,59.7303925059,Female,trial,2017_May_25_1532,
,,0.23,"[-4.5, 0]",/sounds/legit/left60.wav,,,,,2,19,89,26,,,,,,,,,,,,,,,left,0.18491601944,,,,,participant3,24,59.7303925059,Female,trial,2017_May_25_1532,
,,0.1,"[6.75, 0]",/sounds/legit/right100.wav,,,,,2,20,90,15,,,,,,,,,,,,,,,right,0.251948833466,,,,,participant3,24,59.7303925059,Female,trial,2017_May_25_1532,
,,0.36,"[4.5, 0]",/sounds/legit/right60.wav,,,,,2,21,91,12,,,,,,,,,,,,,,,right,0.185190200806,,,,,participant3,24,59.7303925059,Female,trial,2017_May_25_1532,
,,0.62,"[2.25, 0]",/sounds/legit/right30.wav,,,,,2,22,92,9,,,,,,,,,,,,,,,right,0.0848989486694,,,,,participant3,24,59.7303925059,Female,trial,2017_May_25_1532,
,,0.49,"[2.25, 0]",/sounds/legit/right30.wav,,,,,2,23,93,8,,,,,,,,,,,,,,,right,0.118391990662,,,,,participant3,24,59.7303925059,Female,trial,2017_May_25_1532,
,,0.1,"[-6.75, 0]",/sounds/legit/left100.wav,,,,,2,24,94,30,,,,,,,,,,,,,,,left,0.135059833527,,,,,participant3,24,59.7303925059,Female,trial,2017_May_25_1532,
,,0.36,"[-4.5, 0]",/sounds/legit/left60.wav,,,,,2,25,95,27,,,,,,,,,,,,,,,left,0.185037136078,,,,,participant3,24,59.7303925059,Female,trial,2017_May_25_1532,
,,0.23,"[6.75, 0]",/sounds/legit/right100.wav,,,,,2,26,96,16,,,,,,,,,,,,,,,right,0.21846985817,,,,,participant3,24,59.7303925059,Female,trial,2017_May_25_1532,
,,0.1,"[4.5, 0]",/sounds/legit/right60.wav,,,,,2,27,97,10,,,,,,,,,,,,,,,right,0.185184955597,,,,,participant3,24,59.7303925059,Female,trial,2017_May_25_1532,
,,0.1,"[-2.25, 0]",/sounds/legit/left30.wav,,,,,2,28,98,20,,,,,,,,,,,,,,,left,0.168179988861,,,,,participant3,24,59.7303925059,Female,trial,2017_May_25_1532,
,,0.36,"[-6.75, 0]",/sounds/legit/left100.wav,,,,,2,29,99,32,,,,,,,,,,,,,,,left,0.185279130936,,,,,participant3,24,59.7303925059,Female,trial,2017_May_25_1532,
,,0.23,"[2.25, 0]",/sounds/legit/right30.wav,,,,,2,30,100,6,,,,,,,,,,,,,,,right,0.135130167007,,,,,participant3,24,59.7303925059,Female,trial,2017_May_25_1532,
,,0.1,"[-4.5, 0]",/sounds/legit/left60.wav,,,,,2,31,101,25,,,,,,,,,,,,,,,left,0.101518154144,,,,,participant3,24,59.7303925059,Female,trial,2017_May_25_1532,
,,0.62,"[4.5, 0]",/sounds/legit/right60.wav,,,,,2,32,102,14,,,,,,,,,,,,,,,right,0.0511410236359,,,,,participant3,24,59.7303925059,Female,trial,2017_May_25_1532,
,,0.62,"[-2.25, 0]",/sounds/legit/left30.wav,,,,,2,33,103,24,,,,,,,,,,,,,,,left,0.302490949631,,,,,participant3,24,59.7303925059,Female,trial,2017_May_25_1532,
,,0.49,"[4.5, 0]",/sounds/legit/right60.wav,,,,,2,34,104,13,,,,,,,,,,,,,,,right,0.201942205429,,,,,participant3,24,59.7303925059,Female,trial,2017_May_25_1532,
,,0.49,"[-6.75, 0]",/sounds/legit/left100.wav,,,,,3,0,105,33,,,,,,,,,,,,,,,left,0.118365049362,,,,,participant3,24,59.7303925059,Female,trial,2017_May_25_1532,
,,0.62,"[-2.25, 0]",/sounds/legit/left30.wav,,,,,3,1,106,24,,,,,,,,,,,,,,,left,0.886553049088,,,,,participant3,24,59.7303925059,Female,trial,2017_May_25_1532,
,,0.1,"[4.5, 0]",/sounds/legit/right60.wav,,,,,3,2,107,10,,,,,,,,,,,,,,,right,0.268482923508,,,,,participant3,24,59.7303925059,Female,trial,2017_May_25_1532,
,,0.49,"[2.25, 0]",/sounds/legit/right30.wav,,,,,3,3,108,8,,,,,,,,,,,,,,,right,0.0849628448486,,,,,participant3,24,59.7303925059,Female,trial,2017_May_25_1532,
,,0.23,"[-4.5, 0]",/sounds/legit/left60.wav,,,,,3,4,109,26,,,,,,,,,,,,,,,left,0.201870203018,,,,,participant3,24,59.7303925059,Female,trial,2017_May_25_1532,
,,0.49,"[-4.5, 0]",/sounds/legit/left60.wav,,,,,3,5,110,28,,,,,,,,,,,,,,,left,0.252305984497,,,,,participant3,24,59.7303925059,Female,trial,2017_May_25_1532,
,,0.62,"[4.5, 0]",/sounds/legit/right60.wav,,,,,3,6,111,14,,,,,,,,,,,,,,,right,0.151690006256,,,,,participant3,24,59.7303925059,Female,trial,2017_May_25_1532,
,,0.36,"[0, 0]",/sounds/legit/equal.wav,,,,,3,7,112,2,,,,,,,,,,,,,,,left,0.836905002594,,,,,participant3,24,59.7303925059,Female,trial,2017_May_25_1532,
,,0.36,"[-2.25, 0]",/sounds/legit/left30.wav,,,,,3,8,113,22,,,,,,,,,,,,,,,left,0.218254089355,,,,,participant3,24,59.7303925059,Female,trial,2017_May_25_1532,
,,0.36,"[-4.5, 0]",/sounds/legit/left60.wav,,,,,3,9,114,27,,,,,,,,,,,,,,,left,0.151571035385,,,,,participant3,24,59.7303925059,Female,trial,2017_May_25_1532,
,,0.36,"[-6.75, 0]",/sounds/legit/left100.wav,,,,,3,10,115,32,,,,,,,,,,,,,,,left,0.168424844742,,,,,participant3,24,59.7303925059,Female,trial,2017_May_25_1532,
,,0.23,"[-6.75, 0]",/sounds/legit/left100.wav,,,,,3,11,116,31,,,,,,,,,,,,,,,left,0.184972047806,,,,,participant3,24,59.7303925059,Female,trial,2017_May_25_1532,
,,0.36,"[4.5, 0]",/sounds/legit/right60.wav,,,,,3,12,117,12,,,,,,,,,,,,,,,right,0.218346834183,,,,,participant3,24,59.7303925059,Female,trial,2017_May_25_1532,
,,0.36,"[2.25, 0]",/sounds/legit/right30.wav,,,,,3,13,118,7,,,,,,,,,,,,,,,right,1.50439190865,,,,,participant3,24,59.7303925059,Female,trial,2017_May_25_1532,
,,0.23,"[4.5, 0]",/sounds/legit/right60.wav,,,,,3,14,119,11,,,,,,,,,,,,,,,right,0.134695053101,,,,,participant3,24,59.7303925059,Female,trial,2017_May_25_1532,
,,0.62,"[0, 0]",/sounds/legit/equal.wav,,,,,3,15,120,4,,,,,,,,,,,,,,,right,1.58813500404,,,,,participant3,24,59.7303925059,Female,trial,2017_May_25_1532,
,,0.23,"[2.25, 0]",/sounds/legit/right30.wav,,,,,3,16,121,6,,,,,,,,,,,,,,,right,0.435539960861,,,,,participant3,24,59.7303925059,Female,trial,2017_May_25_1532,
,,0.1,"[0, 0]",/sounds/legit/equal.wav,,,,,3,17,122,0,,,,,,,,,,,,,,,left,1.02010393143,,,,,participant3,24,59.7303925059,Female,trial,2017_May_25_1532,
,,0.1,"[-2.25, 0]",/sounds/legit/left30.wav,,,,,3,18,123,20,,,,,,,,,,,,,,,left,0.369248867035,,,,,participant3,24,59.7303925059,Female,trial,2017_May_25_1532,
,,0.49,"[0, 0]",/sounds/legit/equal.wav,,,,,3,19,124,3,,,,,,,,,,,,,,,left,1.58806014061,,,,,participant3,24,59.7303925059,Female,trial,2017_May_25_1532,
,,0.49,"[6.75, 0]",/sounds/legit/right100.wav,,,,,3,20,125,18,,,,,,,,,,,,,,,right,0.452404975891,,,,,participant3,24,59.7303925059,Female,trial,2017_May_25_1532,
,,0.23,"[6.75, 0]",/sounds/legit/right100.wav,,,,,3,21,126,16,,,,,,,,,,,,,,,right,0.402473926544,,,,,participant3,24,59.7303925059,Female,trial,2017_May_25_1532,
,,0.49,"[-2.25, 0]",/sounds/legit/left30.wav,,,,,3,22,127,23,,,,,,,,,,,,,,,left,0.819858074188,,,,,participant3,24,59.7303925059,Female,trial,2017_May_25_1532,
,,0.1,"[2.25, 0]",/sounds/legit/right30.wav,,,,,3,23,128,5,,,,,,,,,,,,,,,right,0.402356863022,,,,,participant3,24,59.7303925059,Female,trial,2017_May_25_1532,
,,0.62,"[6.75, 0]",/sounds/legit/right100.wav,,,,,3,24,129,19,,,,,,,,,,,,,,,right,0.335664987564,,,,,participant3,24,59.7303925059,Female,trial,2017_May_25_1532,
,,0.1,"[6.75, 0]",/sounds/legit/right100.wav,,,,,3,25,130,15,,,,,,,,,,,,,,,right,0.385453939438,,,,,participant3,24,59.7303925059,Female,trial,2017_May_25_1532,
,,0.49,"[4.5, 0]",/sounds/legit/right60.wav,,,,,3,26,131,13,,,,,,,,,,,,,,,right,0.368736982346,,,,,participant3,24,59.7303925059,Female,trial,2017_May_25_1532,
,,0.62,"[-4.5, 0]",/sounds/legit/left60.wav,,,,,3,27,132,29,,,,,,,,,,,,,,,left,0.351984977722,,,,,participant3,24,59.7303925059,Female,trial,2017_May_25_1532,
,,0.36,"[6.75, 0]",/sounds/legit/right100.wav,,,,,3,28,133,17,,,,,,,,,,,,,,,right,0.352471113205,,,,,participant3,24,59.7303925059,Female,trial,2017_May_25_1532,
,,0.23,"[-2.25, 0]",/sounds/legit/left30.wav,,,,,3,29,134,21,,,,,,,,,,,,,,,left,0.302180051804,,,,,participant3,24,59.7303925059,Female,trial,2017_May_25_1532,
,,0.62,"[-6.75, 0]",/sounds/legit/left100.wav,,,,,3,30,135,34,,,,,,,,,,,,,,,left,0.352250099182,,,,,participant3,24,59.7303925059,Female,trial,2017_May_25_1532,
,,0.1,"[-6.75, 0]",/sounds/legit/left100.wav,,,,,3,31,136,30,,,,,,,,,,,,,,,left,0.368588924408,,,,,participant3,24,59.7303925059,Female,trial,2017_May_25_1532,
,,0.23,"[0, 0]",/sounds/legit/equal.wav,,,,,3,32,137,1,,,,,,,,,,,,,,,left,0.635739803314,,,,,participant3,24,59.7303925059,Female,trial,2017_May_25_1532,
,,0.1,"[-4.5, 0]",/sounds/legit/left60.wav,,,,,3,33,138,25,,,,,,,,,,,,,,,left,0.335473060608,,,,,participant3,24,59.7303925059,Female,trial,2017_May_25_1532,
,,0.62,"[2.25, 0]",/sounds/legit/right30.wav,,,,,3,34,139,9,,,,,,,,,,,,,,,right,0.251839876175,,,,,participant3,24,59.7303925059,Female,trial,2017_May_25_1532,
,,0.49,"[4.5, 0]",/sounds/legit/right60.wav,,,,,4,0,140,13,,,,,,,,,,,,,,,right,0.251851797104,,,,,participant3,24,59.7303925059,Female,trial,2017_May_25_1532,
,,0.23,"[-2.25, 0]",/sounds/legit/left30.wav,,,,,4,1,141,21,,,,,,,,,,,,,,,left,0.201696157455,,,,,participant3,24,59.7303925059,Female,trial,2017_May_25_1532,
,,0.23,"[2.25, 0]",/sounds/legit/right30.wav,,,,,4,2,142,6,,,,,,,,,,,,,,,right,0.151535987854,,,,,participant3,24,59.7303925059,Female,trial,2017_May_25_1532,
,,0.23,"[-4.5, 0]",/sounds/legit/left60.wav,,,,,4,3,143,26,,,,,,,,,,,,,,,left,0.135005950928,,,,,participant3,24,59.7303925059,Female,trial,2017_May_25_1532,
,,0.1,"[4.5, 0]",/sounds/legit/right60.wav,,,,,4,4,144,10,,,,,,,,,,,,,,,right,0.067999124527,,,,,participant3,24,59.7303925059,Female,trial,2017_May_25_1532,
,,0.49,"[-6.75, 0]",/sounds/legit/left100.wav,,,,,4,5,145,33,,,,,,,,,,,,,,,left,0.117969036102,,,,,participant3,24,59.7303925059,Female,trial,2017_May_25_1532,
,,0.62,"[-4.5, 0]",/sounds/legit/left60.wav,,,,,4,6,146,29,,,,,,,,,,,,,,,left,0.134855985641,,,,,participant3,24,59.7303925059,Female,trial,2017_May_25_1532,
,,0.36,"[2.25, 0]",/sounds/legit/right30.wav,,,,,4,7,147,7,,,,,,,,,,,,,,,right,0.134842157364,,,,,participant3,24,59.7303925059,Female,trial,2017_May_25_1532,
,,0.1,"[-6.75, 0]",/sounds/legit/left100.wav,,,,,4,8,148,30,,,,,,,,,,,,,,,left,0.0513150691986,,,,,participant3,24,59.7303925059,Female,trial,2017_May_25_1532,
,,0.1,"[6.75, 0]",/sounds/legit/right100.wav,,,,,4,9,149,15,,,,,,,,,,,,,,,right,0.118315935135,,,,,participant3,24,59.7303925059,Female,trial,2017_May_25_1532,
,,0.49,"[-2.25, 0]",/sounds/legit/left30.wav,,,,,4,10,150,23,,,,,,,,,,,,,,,left,0.0514810085297,,,,,participant3,24,59.7303925059,Female,trial,2017_May_25_1532,
,,0.36,"[0, 0]",/sounds/legit/equal.wav,,,,,4,11,151,2,,,,,,,,,,,,,,,left,0.151816129684,,,,,participant3,24,59.7303925059,Female,trial,2017_May_25_1532,
,,0.49,"[2.25, 0]",/sounds/legit/right30.wav,,,,,4,12,152,8,,,,,,,,,,,,,,,right,0.20182299614,,,,,participant3,24,59.7303925059,Female,trial,2017_May_25_1532,
,,0.62,"[4.5, 0]",/sounds/legit/right60.wav,,,,,4,13,153,14,,,,,,,,,,,,,,,right,2.22302603722,,,,,participant3,24,59.7303925059,Female,trial,2017_May_25_1532,
,,0.49,"[0, 0]",/sounds/legit/equal.wav,,,,,4,14,154,3,,,,,,,,,,,,,,,left,1.03592896461,,,,,participant3,24,59.7303925059,Female,trial,2017_May_25_1532,
,,0.23,"[-6.75, 0]",/sounds/legit/left100.wav,,,,,4,15,155,31,,,,,,,,,,,,,,,left,0.318719863892,,,,,participant3,24,59.7303925059,Female,trial,2017_May_25_1532,
,,0.23,"[6.75, 0]",/sounds/legit/right100.wav,,,,,4,16,156,16,,,,,,,,,,,,,,,right,0.351077079773,,,,,participant3,24,59.7303925059,Female,trial,2017_May_25_1532,
,,0.62,"[2.25, 0]",/sounds/legit/right30.wav,,,,,4,17,157,9,,,,,,,,,,,,,,,right,0.351858854294,,,,,participant3,24,59.7303925059,Female,trial,2017_May_25_1532,
,,0.62,"[6.75, 0]",/sounds/legit/right100.wav,,,,,4,18,158,19,,,,,,,,,,,,,,,right,0.301069021225,,,,,participant3,24,59.7303925059,Female,trial,2017_May_25_1532,
,,0.36,"[-4.5, 0]",/sounds/legit/left60.wav,,,,,4,19,159,27,,,,,,,,,,,,,,,left,0.251653909683,,,,,participant3,24,59.7303925059,Female,trial,2017_May_25_1532,
,,0.36,"[6.75, 0]",/sounds/legit/right100.wav,,,,,4,20,160,17,,,,,,,,,,,,,,,right,0.118126153946,,,,,participant3,24,59.7303925059,Female,trial,2017_May_25_1532,
,,0.36,"[-2.25, 0]",/sounds/legit/left30.wav,,,,,4,21,161,22,,,,,,,,,,,,,,,left,0.0348269939423,,,,,participant3,24,59.7303925059,Female,trial,2017_May_25_1532,
,,0.1,"[-2.25, 0]",/sounds/legit/left30.wav,,,,,4,22,162,20,,,,,,,,,,,,,,,left,0.0682208538055,,,,,participant3,24,59.7303925059,Female,trial,2017_May_25_1532,
,,0.62,"[-6.75, 0]",/sounds/legit/left100.wav,,,,,4,23,163,34,,,,,,,,,,,,,,,left,0.13479590416,,,,,participant3,24,59.7303925059,Female,trial,2017_May_25_1532,
,,0.62,"[-2.25, 0]",/sounds/legit/left30.wav,,,,,4,24,164,24,,,,,,,,,,,,,,,left,0.00145602226257,,,,,participant3,24,59.7303925059,Female,trial,2017_May_25_1532,
,,0.36,"[4.5, 0]",/sounds/legit/right60.wav,,,,,4,25,165,12,,,,,,,,,,,,,,,right,0.151826143265,,,,,participant3,24,59.7303925059,Female,trial,2017_May_25_1532,
,,0.1,"[-4.5, 0]",/sounds/legit/left60.wav,,,,,4,26,166,25,,,,,,,,,,,,,,,left,0.335589885712,,,,,participant3,24,59.7303925059,Female,trial,2017_May_25_1532,
,,0.62,"[0, 0]",/sounds/legit/equal.wav,,,,,4,27,167,4,,,,,,,,,,,,,,,left,0.56830906868,,,,,participant3,24,59.7303925059,Female,trial,2017_May_25_1532,
,,0.1,"[2.25, 0]",/sounds/legit/right30.wav,,,,,4,28,168,5,,,,,,,,,,,,,,,right,0.268638849258,,,,,participant3,24,59.7303925059,Female,trial,2017_May_25_1532,
,,0.23,"[4.5, 0]",/sounds/legit/right60.wav,,,,,4,29,169,11,,,,,,,,,,,,,,,right,0.00140500068665,,,,,participant3,24,59.7303925059,Female,trial,2017_May_25_1532,
,,0.1,"[0, 0]",/sounds/legit/equal.wav,,,,,4,30,170,0,,,,,,,,,,,,,,,left,1.6213850975,,,,,participant3,24,59.7303925059,Female,trial,2017_May_25_1532,
,,0.49,"[6.75, 0]",/sounds/legit/right100.wav,,,,,4,31,171,18,,,,,,,,,,,,,,,right,0.285272121429,,,,,participant3,24,59.7303925059,Female,trial,2017_May_25_1532,
,,0.36,"[-6.75, 0]",/sounds/legit/left100.wav,,,,,4,32,172,32,,,,,,,,,,,,,,,left,0.385529994965,,,,,participant3,24,59.7303925059,Female,trial,2017_May_25_1532,
,,0.49,"[-4.5, 0]",/sounds/legit/left60.wav,,,,,4,33,173,28,,,,,,,,,,,,,,,left,0.301903009415,,,,,participant3,24,59.7303925059,Female,trial,2017_May_25_1532,
,,0.23,"[0, 0]",/sounds/legit/equal.wav,,,,,4,34,174,1,,,,,,,,,,,,,,,left,0.502362012863,,,,,participant3,24,59.7303925059,Female,trial,2017_May_25_1532,
,,0.36,"[4.5, 0]",/sounds/legit/right60.wav,,,,,5,0,175,12,,,,,,,,,,,,,,,right,0.418878078461,,,,,participant3,24,59.7303925059,Female,trial,2017_May_25_1532,
,,0.1,"[-6.75, 0]",/sounds/legit/left100.wav,,,,,5,1,176,30,,,,,,,,,,,,,,,left,0.268379926682,,,,,participant3,24,59.7303925059,Female,trial,2017_May_25_1532,
,,0.62,"[0, 0]",/sounds/legit/equal.wav,,,,,5,2,177,4,,,,,,,,,,,,,,,left,0.953636884689,,,,,participant3,24,59.7303925059,Female,trial,2017_May_25_1532,
,,0.36,"[2.25, 0]",/sounds/legit/right30.wav,,,,,5,3,178,7,,,,,,,,,,,,,,,right,0.234850168228,,,,,participant3,24,59.7303925059,Female,trial,2017_May_25_1532,
,,0.1,"[4.5, 0]",/sounds/legit/right60.wav,,,,,5,4,179,10,,,,,,,,,,,,,,,right,0.385592937469,,,,,participant3,24,59.7303925059,Female,trial,2017_May_25_1532,
,,0.23,"[6.75, 0]",/sounds/legit/right100.wav,,,,,5,5,180,16,,,,,,,,,,,,,,,right,0.151724100113,,,,,participant3,24,59.7303925059,Female,trial,2017_May_25_1532,
,,0.49,"[6.75, 0]",/sounds/legit/right100.wav,,,,,5,6,181,18,,,,,,,,,,,,,,,right,0.101634979248,,,,,participant3,24,59.7303925059,Female,trial,2017_May_25_1532,
,,0.62,"[6.75, 0]",/sounds/legit/right100.wav,,,,,5,7,182,19,,,,,,,,,,,,,,,right,0.10179901123,,,,,participant3,24,59.7303925059,Female,trial,2017_May_25_1532,
,,0.1,"[-4.5, 0]",/sounds/legit/left60.wav,,,,,5,8,183,25,,,,,,,,,,,,,,,left,0.134848833084,,,,,participant3,24,59.7303925059,Female,trial,2017_May_25_1532,
,,0.1,"[-2.25, 0]",/sounds/legit/left30.wav,,,,,5,9,184,20,,,,,,,,,,,,,,,left,0.118217945099,,,,,participant3,24,59.7303925059,Female,trial,2017_May_25_1532,
,,0.36,"[6.75, 0]",/sounds/legit/right100.wav,,,,,5,10,185,17,,,,,,,,,,,,,,,right,0.0344610214233,,,,,participant3,24,59.7303925059,Female,trial,2017_May_25_1532,
,,0.49,"[0, 0]",/sounds/legit/equal.wav,,,,,5,11,186,3,,,,,,,,,,,,,,,left,1.32091188431,,,,,participant3,24,59.7303925059,Female,trial,2017_May_25_1532,
,,0.49,"[2.25, 0]",/sounds/legit/right30.wav,,,,,5,12,187,8,,,,,,,,,,,,,,,right,0.285253047943,,,,,participant3,24,59.7303925059,Female,trial,2017_May_25_1532,
,,0.36,"[0, 0]",/sounds/legit/equal.wav,,,,,5,13,188,2,,,,,,,,,,,,,,,left,1.43754482269,,,,,participant3,24,59.7303925059,Female,trial,2017_May_25_1532,
,,0.62,"[-2.25, 0]",/sounds/legit/left30.wav,,,,,5,14,189,24,,,,,,,,,,,,,,,left,0.301851034164,,,,,participant3,24,59.7303925059,Female,trial,2017_May_25_1532,
,,0.62,"[2.25, 0]",/sounds/legit/right30.wav,,,,,5,15,190,9,,,,,,,,,,,,,,,right,0.251764059067,,,,,participant3,24,59.7303925059,Female,trial,2017_May_25_1532,
,,0.23,"[2.25, 0]",/sounds/legit/right30.wav,,,,,5,16,191,6,,,,,,,,,,,,,,,right,0.218607187271,,,,,participant3,24,59.7303925059,Female,trial,2017_May_25_1532,
,,0.49,"[-6.75, 0]",/sounds/legit/left100.wav,,,,,5,17,192,33,,,,,,,,,,,,,,,left,0.368678092957,,,,,participant3,24,59.7303925059,Female,trial,2017_May_25_1532,
,,0.49,"[-2.25, 0]",/sounds/legit/left30.wav,,,,,5,18,193,23,,,,,,,,,,,,,,,left,0.335381984711,,,,,participant3,24,59.7303925059,Female,trial,2017_May_25_1532,
,,0.62,"[4.5, 0]",/sounds/legit/right60.wav,,,,,5,19,194,14,,,,,,,,,,,,,,,right,0.352247953415,,,,,participant3,24,59.7303925059,Female,trial,2017_May_25_1532,
,,0.36,"[-4.5, 0]",/sounds/legit/left60.wav,,,,,5,20,195,27,,,,,,,,,,,,,,,left,0.335440158844,,,,,participant3,24,59.7303925059,Female,trial,2017_May_25_1532,
,,0.36,"[-2.25, 0]",/sounds/legit/left30.wav,,,,,5,21,196,22,,,,,,,,,,,,,,,left,0.368990898132,,,,,participant3,24,59.7303925059,Female,trial,2017_May_25_1532,
,,0.62,"[-6.75, 0]",/sounds/legit/left100.wav,,,,,5,22,197,34,,,,,,,,,,,,,,,left,0.686132907867,,,,,participant3,24,59.7303925059,Female,trial,2017_May_25_1532,
,,0.1,"[6.75, 0]",/sounds/legit/right100.wav,,,,,5,23,198,15,,,,,,,,,,,,,,,right,0.134883880615,,,,,participant3,24,59.7303925059,Female,trial,2017_May_25_1532,
,,0.1,"[2.25, 0]",/sounds/legit/right30.wav,,,,,5,24,199,5,,,,,,,,,,,,,,,right,0.318723917007,,,,,participant3,24,59.7303925059,Female,trial,2017_May_25_1532,
,,0.23,"[-6.75, 0]",/sounds/legit/left100.wav,,,,,5,25,200,31,,,,,,,,,,,,,,,left,0.36861205101,,,,,participant3,24,59.7303925059,Female,trial,2017_May_25_1532,
,,0.1,"[0, 0]",/sounds/legit/equal.wav,,,,,5,26,201,0,,,,,,,,,,,,,,,left,0.869955062866,,,,,participant3,24,59.7303925059,Female,trial,2017_May_25_1532,
,,0.23,"[-2.25, 0]",/sounds/legit/left30.wav,,,,,5,27,202,21,,,,,,,,,,,,,,,left,0.318814992905,,,,,participant3,24,59.7303925059,Female,trial,2017_May_25_1532,
,,0.62,"[-4.5, 0]",/sounds/legit/left60.wav,,,,,5,28,203,29,,,,,,,,,,,,,,,left,0.368803977966,,,,,participant3,24,59.7303925059,Female,trial,2017_May_25_1532,
,,0.36,"[-6.75, 0]",/sounds/legit/left100.wav,,,,,5,29,204,32,,,,,,,,,,,,,,,left,0.352071046829,,,,,participant3,24,59.7303925059,Female,trial,2017_May_25_1532,
,,0.23,"[0, 0]",/sounds/legit/equal.wav,,,,,5,30,205,1,,,,,,,,,,,,,,,right,2.12254595757,,,,,participant3,24,59.7303925059,Female,trial,2017_May_25_1532,
,,0.23,"[-4.5, 0]",/sounds/legit/left60.wav,,,,,5,31,206,26,,,,,,,,,,,,,,,left,0.318632125854,,,,,participant3,24,59.7303925059,Female,trial,2017_May_25_1532,
,,0.49,"[4.5, 0]",/sounds/legit/right60.wav,,,,,5,32,207,13,,,,,,,,,,,,,,,right,0.218262910843,,,,,participant3,24,59.7303925059,Female,trial,2017_May_25_1532,
,,0.23,"[4.5, 0]",/sounds/legit/right60.wav,,,,,5,33,208,11,,,,,,,,,,,,,,,right,0.0349650382996,,,,,participant3,24,59.7303925059,Female,trial,2017_May_25_1532,
,,0.49,"[-4.5, 0]",/sounds/legit/left60.wav,,,,,5,34,209,28,,,,,,,,,,,,,,,left,0.068107843399,,,,,participant3,24,59.7303925059,Female,trial,2017_May_25_1532,
,,0.49,"[2.25, 0]",/sounds/legit/right30.wav,,,,,6,0,210,8,,,,,,,,,,,,,,,right,0.0340321063995,,,,,participant3,24,59.7303925059,Female,trial,2017_May_25_1532,
,,0.1,"[2.25, 0]",/sounds/legit/right30.wav,,,,,6,1,211,5,,,,,,,,,,,,,,,left,16.135789156,,,,,participant3,24,59.7303925059,Female,trial,2017_May_25_1532,
,,0.1,"[0, 0]",/sounds/legit/equal.wav,,,,,6,2,212,0,,,,,,,,,,,,,,,left,0.736050844193,,,,,participant3,24,59.7303925059,Female,trial,2017_May_25_1532,
,,0.1,"[-4.5, 0]",/sounds/legit/left60.wav,,,,,6,3,213,25,,,,,,,,,,,,,,,left,0.135032892227,,,,,participant3,24,59.7303925059,Female,trial,2017_May_25_1532,
,,0.62,"[2.25, 0]",/sounds/legit/right30.wav,,,,,6,4,214,9,,,,,,,,,,,,,,,right,0.0514628887177,,,,,participant3,24,59.7303925059,Female,trial,2017_May_25_1532,
,,0.36,"[6.75, 0]",/sounds/legit/right100.wav,,,,,6,5,215,17,,,,,,,,,,,,,,,right,0.0513200759888,,,,,participant3,24,59.7303925059,Female,trial,2017_May_25_1532,
,,0.1,"[4.5, 0]",/sounds/legit/right60.wav,,,,,6,6,216,10,,,,,,,,,,,,,,,right,0.0349290370941,,,,,participant3,24,59.7303925059,Female,trial,2017_May_25_1532,
,,0.62,"[4.5, 0]",/sounds/legit/right60.wav,,,,,6,7,217,14,,,,,,,,,,,,,,,right,4.14363503456,,,,,participant3,24,59.7303925059,Female,trial,2017_May_25_1532,
,,0.49,"[6.75, 0]",/sounds/legit/right100.wav,,,,,6,8,218,18,,,,,,,,,,,,,,,right,0.502444982529,,,,,participant3,24,59.7303925059,Female,trial,2017_May_25_1532,
,,0.36,"[-6.75, 0]",/sounds/legit/left100.wav,,,,,6,9,219,32,,,,,,,,,,,,,,,left,0.234780073166,,,,,participant3,24,59.7303925059,Female,trial,2017_May_25_1532,
,,0.1,"[-6.75, 0]",/sounds/legit/left100.wav,,,,,6,10,220,30,,,,,,,,,,,,,,,left,0.151682138443,,,,,participant3,24,59.7303925059,Female,trial,2017_May_25_1532,
,,0.36,"[-4.5, 0]",/sounds/legit/left60.wav,,,,,6,11,221,27,,,,,,,,,,,,,,,left,0.134782075882,,,,,participant3,24,59.7303925059,Female,trial,2017_May_25_1532,
,,0.1,"[6.75, 0]",/sounds/legit/right100.wav,,,,,6,12,222,15,,,,,,,,,,,,,,,right,0.168307781219,,,,,participant3,24,59.7303925059,Female,trial,2017_May_25_1532,
,,0.62,"[-2.25, 0]",/sounds/legit/left30.wav,,,,,6,13,223,24,,,,,,,,,,,,,,,left,0.185021162033,,,,,participant3,24,59.7303925059,Female,trial,2017_May_25_1532,
,,0.49,"[0, 0]",/sounds/legit/equal.wav,,,,,6,14,224,3,,,,,,,,,,,,,,,left,0.819594860077,,,,,participant3,24,59.7303925059,Female,trial,2017_May_25_1532,
,,0.23,"[-6.75, 0]",/sounds/legit/left100.wav,,,,,6,15,225,31,,,,,,,,,,,,,,,left,0.218502998352,,,,,participant3,24,59.7303925059,Female,trial,2017_May_25_1532,
,,0.23,"[-4.5, 0]",/sounds/legit/left60.wav,,,,,6,16,226,26,,,,,,,,,,,,,,,left,0.4192070961,,,,,participant3,24,59.7303925059,Female,trial,2017_May_25_1532,
,,0.23,"[-2.25, 0]",/sounds/legit/left30.wav,,,,,6,17,227,21,,,,,,,,,,,,,,,left,0.251669883728,,,,,participant3,24,59.7303925059,Female,trial,2017_May_25_1532,
,,0.36,"[4.5, 0]",/sounds/legit/right60.wav,,,,,6,18,228,12,,,,,,,,,,,,,,,right,0.251574993134,,,,,participant3,24,59.7303925059,Female,trial,2017_May_25_1532,
,,0.49,"[-2.25, 0]",/sounds/legit/left30.wav,,,,,6,19,229,23,,,,,,,,,,,,,,,left,0.251965045929,,,,,participant3,24,59.7303925059,Female,trial,2017_May_25_1532,
,,0.36,"[2.25, 0]",/sounds/legit/right30.wav,,,,,6,20,230,7,,,,,,,,,,,,,,,right,0.301974058151,,,,,participant3,24,59.7303925059,Female,trial,2017_May_25_1532,
,,0.62,"[-4.5, 0]",/sounds/legit/left60.wav,,,,,6,21,231,29,,,,,,,,,,,,,,,left,0.134858846664,,,,,participant3,24,59.7303925059,Female,trial,2017_May_25_1532,
,,0.1,"[-2.25, 0]",/sounds/legit/left30.wav,,,,,6,22,232,20,,,,,,,,,,,,,,,left,0.285315990448,,,,,participant3,24,59.7303925059,Female,trial,2017_May_25_1532,
,,0.62,"[6.75, 0]",/sounds/legit/right100.wav,,,,,6,23,233,19,,,,,,,,,,,,,,,right,0.284900188446,,,,,participant3,24,59.7303925059,Female,trial,2017_May_25_1532,
,,0.23,"[2.25, 0]",/sounds/legit/right30.wav,,,,,6,24,234,6,,,,,,,,,,,,,,,right,0.335566997528,,,,,participant3,24,59.7303925059,Female,trial,2017_May_25_1532,
,,0.49,"[4.5, 0]",/sounds/legit/right60.wav,,,,,6,25,235,13,,,,,,,,,,,,,,,right,0.218503952026,,,,,participant3,24,59.7303925059,Female,trial,2017_May_25_1532,
,,0.62,"[0, 0]",/sounds/legit/equal.wav,,,,,6,26,236,4,,,,,,,,,,,,,,,left,0.652703046799,,,,,participant3,24,59.7303925059,Female,trial,2017_May_25_1532,
,,0.23,"[0, 0]",/sounds/legit/equal.wav,,,,,6,27,237,1,,,,,,,,,,,,,,,right,1.10338592529,,,,,participant3,24,59.7303925059,Female,trial,2017_May_25_1532,
,,0.49,"[-6.75, 0]",/sounds/legit/left100.wav,,,,,6,28,238,33,,,,,,,,,,,,,,,left,0.552533149719,,,,,participant3,24,59.7303925059,Female,trial,2017_May_25_1532,
,,0.62,"[-6.75, 0]",/sounds/legit/left100.wav,,,,,6,29,239,34,,,,,,,,,,,,,,,left,2.73970293999,,,,,participant3,24,59.7303925059,Female,trial,2017_May_25_1532,
,,0.49,"[-4.5, 0]",/sounds/legit/left60.wav,,,,,6,30,240,28,,,,,,,,,,,,,,,left,0.385282993317,,,,,participant3,24,59.7303925059,Female,trial,2017_May_25_1532,
,,0.36,"[0, 0]",/sounds/legit/equal.wav,,,,,6,31,241,2,,,,,,,,,,,,,,,left,1.17045378685,,,,,participant3,24,59.7303925059,Female,trial,2017_May_25_1532,
,,0.36,"[-2.25, 0]",/sounds/legit/left30.wav,,,,,6,32,242,22,,,,,,,,,,,,,,,left,0.35217499733,,,,,participant3,24,59.7303925059,Female,trial,2017_May_25_1532,
,,0.23,"[6.75, 0]",/sounds/legit/right100.wav,,,,,6,33,243,16,,,,,,,,,,,,,,,right,0.285305023193,,,,,participant3,24,59.7303925059,Female,trial,2017_May_25_1532,
,,0.23,"[4.5, 0]",/sounds/legit/right60.wav,,,,,6,34,244,11,,,,,,,,,,,,,,,right,0.301783084869,,,,,participant3,24,59.7303925059,Female,trial,2017_May_25_1532,
,,0.36,"[4.5, 0]",/sounds/legit/right60.wav,,,,,7,0,245,12,,,,,,,,,,,,,,,right,0.285229921341,,,,,participant3,24,59.7303925059,Female,trial,2017_May_25_1532,
,,0.36,"[-4.5, 0]",/sounds/legit/left60.wav,,,,,7,1,246,27,,,,,,,,,,,,,,,left,0.218518018723,,,,,participant3,24,59.7303925059,Female,trial,2017_May_25_1532,
,,0.23,"[6.75, 0]",/sounds/legit/right100.wav,,,,,7,2,247,16,,,,,,,,,,,,,,,right,0.269113063812,,,,,participant3,24,59.7303925059,Female,trial,2017_May_25_1532,
,,0.49,"[6.75, 0]",/sounds/legit/right100.wav,,,,,7,3,248,18,,,,,,,,,,,,,,,right,0.452070951462,,,,,participant3,24,59.7303925059,Female,trial,2017_May_25_1532,
,,0.62,"[-4.5, 0]",/sounds/legit/left60.wav,,,,,7,4,249,29,,,,,,,,,,,,,,,left,0.502398967743,,,,,participant3,24,59.7303925059,Female,trial,2017_May_25_1532,
,,0.23,"[2.25, 0]",/sounds/legit/right30.wav,,,,,7,5,250,6,,,,,,,,,,,,,,,right,0.251924991608,,,,,participant3,24,59.7303925059,Female,trial,2017_May_25_1532,
,,0.23,"[-6.75, 0]",/sounds/legit/left100.wav,,,,,7,6,251,31,,,,,,,,,,,,,,,left,0.117967128754,,,,,participant3,24,59.7303925059,Female,trial,2017_May_25_1532,
,,0.1,"[0, 0]",/sounds/legit/equal.wav,,,,,7,7,252,0,,,,,,,,,,,,,,,left,0.987193822861,,,,,participant3,24,59.7303925059,Female,trial,2017_May_25_1532,
,,0.1,"[-4.5, 0]",/sounds/legit/left60.wav,,,,,7,8,253,25,,,,,,,,,,,,,,,left,0.285331010818,,,,,participant3,24,59.7303925059,Female,trial,2017_May_25_1532,
,,0.36,"[0, 0]",/sounds/legit/equal.wav,,,,,7,9,254,2,,,,,,,,,,,,,,,left,0.636121988297,,,,,participant3,24,59.7303925059,Female,trial,2017_May_25_1532,
,,0.49,"[4.5, 0]",/sounds/legit/right60.wav,,,,,7,10,255,13,,,,,,,,,,,,,,,right,0.435781955719,,,,,participant3,24,59.7303925059,Female,trial,2017_May_25_1532,
,,0.62,"[0, 0]",/sounds/legit/equal.wav,,,,,7,11,256,4,,,,,,,,,,,,,,,left,1.22076797485,,,,,participant3,24,59.7303925059,Female,trial,2017_May_25_1532,
,,0.1,"[6.75, 0]",/sounds/legit/right100.wav,,,,,7,12,257,15,,,,,,,,,,,,,,,right,0.301894187927,,,,,participant3,24,59.7303925059,Female,trial,2017_May_25_1532,
,,0.23,"[4.5, 0]",/sounds/legit/right60.wav,,,,,7,13,258,11,,,,,,,,,,,,,,,right,0.184977054596,,,,,participant3,24,59.7303925059,Female,trial,2017_May_25_1532,
,,0.62,"[6.75, 0]",/sounds/legit/right100.wav,,,,,7,14,259,19,,,,,,,,,,,,,,,right,0.135303020477,,,,,participant3,24,59.7303925059,Female,trial,2017_May_25_1532,
,,0.62,"[-2.25, 0]",/sounds/legit/left30.wav,,,,,7,15,260,24,,,,,,,,,,,,,,,left,0.351982116699,,,,,participant3,24,59.7303925059,Female,trial,2017_May_25_1532,
,,0.36,"[-2.25, 0]",/sounds/legit/left30.wav,,,,,7,16,261,22,,,,,,,,,,,,,,,left,0.184937953949,,,,,participant3,24,59.7303925059,Female,trial,2017_May_25_1532,
,,0.23,"[0, 0]",/sounds/legit/equal.wav,,,,,7,17,262,1,,,,,,,,,,,,,,,left,0.235204935074,,,,,participant3,24,59.7303925059,Female,trial,2017_May_25_1532,
,,0.1,"[4.5, 0]",/sounds/legit/right60.wav,,,,,7,18,263,10,,,,,,,,,,,,,,,right,0.219007968903,,,,,participant3,24,59.7303925059,Female,trial,2017_May_25_1532,
,,0.62,"[-6.75, 0]",/sounds/legit/left100.wav,,,,,7,19,264,34,,,,,,,,,,,,,,,left,0.201741933823,,,,,participant3,24,59.7303925059,Female,trial,2017_May_25_1532,
,,0.49,"[2.25, 0]",/sounds/legit/right30.wav,,,,,7,20,265,8,,,,,,,,,,,,,,,right,0.101974010468,,,,,participant3,24,59.7303925059,Female,trial,2017_May_25_1532,
,,0.62,"[2.25, 0]",/sounds/legit/right30.wav,,,,,7,21,266,9,,,,,,,,,,,,,,,right,0.184971094131,,,,,participant3,24,59.7303925059,Female,trial,2017_May_25_1532,
,,0.62,"[4.5, 0]",/sounds/legit/right60.wav,,,,,7,22,267,14,,,,,,,,,,,,,,,right,0.201818943024,,,,,participant3,24,59.7303925059,Female,trial,2017_May_25_1532,
,,0.23,"[-2.25, 0]",/sounds/legit/left30.wav,,,,,7,23,268,21,,,,,,,,,,,,,,,left,0.118155956268,,,,,participant3,24,59.7303925059,Female,trial,2017_May_25_1532,
,,0.36,"[2.25, 0]",/sounds/legit/right30.wav,,,,,7,24,269,7,,,,,,,,,,,,,,,right,0.00127911567688,,,,,participant3,24,59.7303925059,Female,trial,2017_May_25_1532,
,,0.1,"[-6.75, 0]",/sounds/legit/left100.wav,,,,,7,25,270,30,,,,,,,,,,,,,,,left,0.0348949432373,,,,,participant3,24,59.7303925059,Female,trial,2017_May_25_1532,
,,0.23,"[-4.5, 0]",/sounds/legit/left60.wav,,,,,7,26,271,26,,,,,,,,,,,,,,,left,0.134865045547,,,,,participant3,24,59.7303925059,Female,trial,2017_May_25_1532,
,,0.49,"[0, 0]",/sounds/legit/equal.wav,,,,,7,27,272,3,,,,,,,,,,,,,,,left,0.803148984909,,,,,participant3,24,59.7303925059,Female,trial,2017_May_25_1532,
,,0.49,"[-6.75, 0]",/sounds/legit/left100.wav,,,,,7,28,273,33,,,,,,,,,,,,,,,left,0.117074966431,,,,,participant3,24,59.7303925059,Female,trial,2017_May_25_1532,
,,0.36,"[6.75, 0]",/sounds/legit/right100.wav,,,,,7,29,274,17,,,,,,,,,,,,,,,right,0.101922035217,,,,,participant3,24,59.7303925059,Female,trial,2017_May_25_1532,
,,0.36,"[-6.75, 0]",/sounds/legit/left100.wav,,,,,7,30,275,32,,,,,,,,,,,,,,,left,0.0682508945465,,,,,participant3,24,59.7303925059,Female,trial,2017_May_25_1532,
,,0.49,"[-2.25, 0]",/sounds/legit/left30.wav,,,,,7,31,276,23,,,,,,,,,,,,,,,left,0.201997995377,,,,,participant3,24,59.7303925059,Female,trial,2017_May_25_1532,
,,0.1,"[-2.25, 0]",/sounds/legit/left30.wav,,,,,7,32,277,20,,,,,,,,,,,,,,,left,0.151769161224,,,,,participant3,24,59.7303925059,Female,trial,2017_May_25_1532,
,,0.49,"[-4.5, 0]",/sounds/legit/left60.wav,,,,,7,33,278,28,,,,,,,,,,,,,,,left,0.302018165588,,,,,participant3,24,59.7303925059,Female,trial,2017_May_25_1532,
,,0.1,"[2.25, 0]",/sounds/legit/right30.wav,,,,,7,34,279,5,,,,,,,,,,,,,,,right,0.202114105225,,,,,participant3,24,59.7303925059,Female,trial,2017_May_25_1532,
,,0.36,"[-2.25, 0]",/sounds/legit/left30.wav,,,,,8,0,280,22,,,,,,,,,,,,,,,left,0.135048866272,,,,,participant3,24,59.7303925059,Female,trial,2017_May_25_1532,
,,0.62,"[6.75, 0]",/sounds/legit/right100.wav,,,,,8,1,281,19,,,,,,,,,,,,,,,right,0.201890945435,,,,,participant3,24,59.7303925059,Female,trial,2017_May_25_1532,
,,0.62,"[0, 0]",/sounds/legit/equal.wav,,,,,8,2,282,4,,,,,,,,,,,,,,,right,1.18722009659,,,,,participant3,24,59.7303925059,Female,trial,2017_May_25_1532,
,,0.49,"[6.75, 0]",/sounds/legit/right100.wav,,,,,8,3,283,18,,,,,,,,,,,,,,,right,0.301954984665,,,,,participant3,24,59.7303925059,Female,trial,2017_May_25_1532,
,,0.1,"[4.5, 0]",/sounds/legit/right60.wav,,,,,8,4,284,10,,,,,,,,,,,,,,,right,0.101603984833,,,,,participant3,24,59.7303925059,Female,trial,2017_May_25_1532,
,,0.36,"[0, 0]",/sounds/legit/equal.wav,,,,,8,5,285,2,,,,,,,,,,,,,,,left,0.402231931686,,,,,participant3,24,59.7303925059,Female,trial,2017_May_25_1532,
,,0.49,"[2.25, 0]",/sounds/legit/right30.wav,,,,,8,6,286,8,,,,,,,,,,,,,,,right,0.118165016174,,,,,participant3,24,59.7303925059,Female,trial,2017_May_25_1532,
,,0.23,"[6.75, 0]",/sounds/legit/right100.wav,,,,,8,7,287,16,,,,,,,,,,,,,,,right,0.134938955307,,,,,participant3,24,59.7303925059,Female,trial,2017_May_25_1532,
,,0.49,"[0, 0]",/sounds/legit/equal.wav,,,,,8,8,288,3,,,,,,,,,,,,,,,left,1.02049088478,,,,,participant3,24,59.7303925059,Female,trial,2017_May_25_1532,
,,0.49,"[4.5, 0]",/sounds/legit/right60.wav,,,,,8,9,289,13,,,,,,,,,,,,,,,right,0.335397005081,,,,,participant3,24,59.7303925059,Female,trial,2017_May_25_1532,
,,0.62,"[-2.25, 0]",/sounds/legit/left30.wav,,,,,8,10,290,24,,,,,,,,,,,,,,,left,0.36869597435,,,,,participant3,24,59.7303925059,Female,trial,2017_May_25_1532,
,,0.23,"[2.25, 0]",/sounds/legit/right30.wav,,,,,8,11,291,6,,,,,,,,,,,,,,,right,0.218330144882,,,,,participant3,24,59.7303925059,Female,trial,2017_May_25_1532,
,,0.49,"[-4.5, 0]",/sounds/legit/left60.wav,,,,,8,12,292,28,,,,,,,,,,,,,,,left,0.235066890717,,,,,participant3,24,59.7303925059,Female,trial,2017_May_25_1532,
,,0.49,"[-6.75, 0]",/sounds/legit/left100.wav,,,,,8,13,293,33,,,,,,,,,,,,,,,left,1.37102198601,,,,,participant3,24,59.7303925059,Female,trial,2017_May_25_1532,
,,0.49,"[-2.25, 0]",/sounds/legit/left30.wav,,,,,8,14,294,23,,,,,,,,,,,,,,,left,0.335314035416,,,,,participant3,24,59.7303925059,Female,trial,2017_May_25_1532,
,,0.36,"[-6.75, 0]",/sounds/legit/left100.wav,,,,,8,15,295,32,,,,,,,,,,,,,,,left,0.168331861496,,,,,participant3,24,59.7303925059,Female,trial,2017_May_25_1532,
,,0.1,"[0, 0]",/sounds/legit/equal.wav,,,,,8,16,296,0,,,,,,,,,,,,,,,left,0.452095031738,,,,,participant3,24,59.7303925059,Female,trial,2017_May_25_1532,
,,0.23,"[-6.75, 0]",/sounds/legit/left100.wav,,,,,8,17,297,31,,,,,,,,,,,,,,,left,0.184962034225,,,,,participant3,24,59.7303925059,Female,trial,2017_May_25_1532,
,,0.62,"[-6.75, 0]",/sounds/legit/left100.wav,,,,,8,18,298,34,,,,,,,,,,,,,,,left,0.151539087296,,,,,participant3,24,59.7303925059,Female,trial,2017_May_25_1532,
,,0.36,"[6.75, 0]",/sounds/legit/right100.wav,,,,,8,19,299,17,,,,,,,,,,,,,,,right,0.636209964752,,,,,participant3,24,59.7303925059,Female,trial,2017_May_25_1532,
,,0.62,"[-4.5, 0]",/sounds/legit/left60.wav,,,,,8,20,300,29,,,,,,,,,,,,,,,right,0.36878490448,,,,,participant3,24,59.7303925059,Female,trial,2017_May_25_1532,
,,0.1,"[2.25, 0]",/sounds/legit/right30.wav,,,,,8,21,301,5,,,,,,,,,,,,,,,right,0.0850689411163,,,,,participant3,24,59.7303925059,Female,trial,2017_May_25_1532,
,,0.62,"[4.5, 0]",/sounds/legit/right60.wav,,,,,8,22,302,14,,,,,,,,,,,,,,,right,0.0350041389465,,,,,participant3,24,59.7303925059,Female,trial,2017_May_25_1532,
,,0.23,"[-2.25, 0]",/sounds/legit/left30.wav,,,,,8,23,303,21,,,,,,,,,,,,,,,left,0.151607036591,,,,,participant3,24,59.7303925059,Female,trial,2017_May_25_1532,
,,0.23,"[0, 0]",/sounds/legit/equal.wav,,,,,8,24,304,1,,,,,,,,,,,,,,,left,0.335280179977,,,,,participant3,24,59.7303925059,Female,trial,2017_May_25_1532,
,,0.23,"[-4.5, 0]",/sounds/legit/left60.wav,,,,,8,25,305,26,,,,,,,,,,,,,,,left,0.151690006256,,,,,participant3,24,59.7303925059,Female,trial,2017_May_25_1532,
,,0.1,"[-6.75, 0]",/sounds/legit/left100.wav,,,,,8,26,306,30,,,,,,,,,,,,,,,left,0.118224859238,,,,,participant3,24,59.7303925059,Female,trial,2017_May_25_1532,
,,0.36,"[4.5, 0]",/sounds/legit/right60.wav,,,,,8,27,307,12,,,,,,,,,,,,,,,right,0.118253946304,,,,,participant3,24,59.7303925059,Female,trial,2017_May_25_1532,
,,0.1,"[-2.25, 0]",/sounds/legit/left30.wav,,,,,8,28,308,20,,,,,,,,,,,,,,,left,0.0178990364075,,,,,participant3,24,59.7303925059,Female,trial,2017_May_25_1532,
,,0.1,"[6.75, 0]",/sounds/legit/right100.wav,,,,,8,29,309,15,,,,,,,,,,,,,,,right,0.00142693519592,,,,,participant3,24,59.7303925059,Female,trial,2017_May_25_1532,
,,0.62,"[2.25, 0]",/sounds/legit/right30.wav,,,,,8,30,310,9,,,,,,,,,,,,,,,right,0.151916980743,,,,,participant3,24,59.7303925059,Female,trial,2017_May_25_1532,
,,0.36,"[-4.5, 0]",/sounds/legit/left60.wav,,,,,8,31,311,27,,,,,,,,,,,,,,,left,0.152334928513,,,,,participant3,24,59.7303925059,Female,trial,2017_May_25_1532,
,,0.23,"[4.5, 0]",/sounds/legit/right60.wav,,,,,8,32,312,11,,,,,,,,,,,,,,,right,0.0683128833771,,,,,participant3,24,59.7303925059,Female,trial,2017_May_25_1532,
,,0.1,"[-4.5, 0]",/sounds/legit/left60.wav,,,,,8,33,313,25,,,,,,,,,,,,,,,left,0.0349230766296,,,,,participant3,24,59.7303925059,Female,trial,2017_May_25_1532,
,,0.36,"[2.25, 0]",/sounds/legit/right30.wav,,,,,8,34,314,7,,,,,,,,,,,,,,,right,0.101278066635,,,,,participant3,24,59.7303925059,Female,trial,2017_May_25_1532,
,,0.1,"[2.25, 0]",/sounds/legit/right30.wav,,,,,9,0,315,5,,,,,,,,,,,,,,,right,0.0348751544952,,,,,participant3,24,59.7303925059,Female,trial,2017_May_25_1532,
,,0.36,"[-2.25, 0]",/sounds/legit/left30.wav,,,,,9,1,316,22,,,,,,,,,,,,,,,left,0.0683770179749,,,,,participant3,24,59.7303925059,Female,trial,2017_May_25_1532,
,,0.49,"[4.5, 0]",/sounds/legit/right60.wav,,,,,9,2,317,13,,,,,,,,,,,,,,,right,0.0514631271362,,,,,participant3,24,59.7303925059,Female,trial,2017_May_25_1532,
,,0.23,"[-4.5, 0]",/sounds/legit/left60.wav,,,,,9,3,318,26,,,,,,,,,,,,,,,left,0.0682199001312,,,,,participant3,24,59.7303925059,Female,trial,2017_May_25_1532,
,,0.36,"[-6.75, 0]",/sounds/legit/left100.wav,,,,,9,4,319,32,,,,,,,,,,,,,,,left,0.0672199726105,,,,,participant3,24,59.7303925059,Female,trial,2017_May_25_1532,
,,0.62,"[2.25, 0]",/sounds/legit/right30.wav,,,,,9,5,320,9,,,,,,,,,,,,,,,right,0.0512781143188,,,,,participant3,24,59.7303925059,Female,trial,2017_May_25_1532,
,,0.23,"[2.25, 0]",/sounds/legit/right30.wav,,,,,9,6,321,6,,,,,,,,,,,,,,,right,0.101797103882,,,,,participant3,24,59.7303925059,Female,trial,2017_May_25_1532,
,,0.62,"[-2.25, 0]",/sounds/legit/left30.wav,,,,,9,7,322,24,,,,,,,,,,,,,,,left,0.0349268913269,,,,,participant3,24,59.7303925059,Female,trial,2017_May_25_1532,
,,0.49,"[-2.25, 0]",/sounds/legit/left30.wav,,,,,9,8,323,23,,,,,,,,,,,,,,,left,0.134608983994,,,,,participant3,24,59.7303925059,Female,trial,2017_May_25_1532,
,,0.36,"[0, 0]",/sounds/legit/equal.wav,,,,,9,9,324,2,,,,,,,,,,,,,,,left,0.252216815948,,,,,participant3,24,59.7303925059,Female,trial,2017_May_25_1532,
,,0.1,"[6.75, 0]",/sounds/legit/right100.wav,,,,,9,10,325,15,,,,,,,,,,,,,,,right,0.101776838303,,,,,participant3,24,59.7303925059,Female,trial,2017_May_25_1532,
,,0.62,"[-4.5, 0]",/sounds/legit/left60.wav,,,,,9,11,326,29,,,,,,,,,,,,,,,left,0.185127973557,,,,,participant3,24,59.7303925059,Female,trial,2017_May_25_1532,
,,0.49,"[2.25, 0]",/sounds/legit/right30.wav,,,,,9,12,327,8,,,,,,,,,,,,,,,right,0.168174982071,,,,,participant3,24,59.7303925059,Female,trial,2017_May_25_1532,
,,0.62,"[0, 0]",/sounds/legit/equal.wav,,,,,9,13,328,4,,,,,,,,,,,,,,,left,1.5380089283,,,,,participant3,24,59.7303925059,Female,trial,2017_May_25_1532,
,,0.1,"[0, 0]",/sounds/legit/equal.wav,,,,,9,14,329,0,,,,,,,,,,,,,,,left,0.635874986649,,,,,participant3,24,59.7303925059,Female,trial,2017_May_25_1532,
,,0.23,"[0, 0]",/sounds/legit/equal.wav,,,,,9,15,330,1,,,,,,,,,,,,,,,left,0.368856906891,,,,,participant3,24,59.7303925059,Female,trial,2017_May_25_1532,
,,0.62,"[6.75, 0]",/sounds/legit/right100.wav,,,,,9,16,331,19,,,,,,,,,,,,,,,right,0.836381196976,,,,,participant3,24,59.7303925059,Female,trial,2017_May_25_1532,
,,0.62,"[4.5, 0]",/sounds/legit/right60.wav,,,,,9,17,332,14,,,,,,,,,,,,,,,right,0.25190114975,,,,,participant3,24,59.7303925059,Female,trial,2017_May_25_1532,
,,0.36,"[-4.5, 0]",/sounds/legit/left60.wav,,,,,9,18,333,27,,,,,,,,,,,,,,,left,0.38601398468,,,,,participant3,24,59.7303925059,Female,trial,2017_May_25_1532,
,,0.62,"[-6.75, 0]",/sounds/legit/left100.wav,,,,,9,19,334,34,,,,,,,,,,,,,,,left,0.469236135483,,,,,participant3,24,59.7303925059,Female,trial,2017_May_25_1532,
,,0.36,"[6.75, 0]",/sounds/legit/right100.wav,,,,,9,20,335,17,,,,,,,,,,,,,,,right,0.201694965363,,,,,participant3,24,59.7303925059,Female,trial,2017_May_25_1532,
,,0.49,"[6.75, 0]",/sounds/legit/right100.wav,,,,,9,21,336,18,,,,,,,,,,,,,,,right,0.134946107864,,,,,participant3,24,59.7303925059,Female,trial,2017_May_25_1532,
,,0.23,"[4.5, 0]",/sounds/legit/right60.wav,,,,,9,22,337,11,,,,,,,,,,,,,,,right,0.118270874023,,,,,participant3,24,59.7303925059,Female,trial,2017_May_25_1532,
,,0.1,"[-2.25, 0]",/sounds/legit/left30.wav,,,,,9,23,338,20,,,,,,,,,,,,,,,left,0.201786994934,,,,,participant3,24,59.7303925059,Female,trial,2017_May_25_1532,
,,0.1,"[4.5, 0]",/sounds/legit/right60.wav,,,,,9,24,339,10,,,,,,,,,,,,,,,right,3.55887794495,,,,,participant3,24,59.7303925059,Female,trial,2017_May_25_1532,
,,0.36,"[4.5, 0]",/sounds/legit/right60.wav,,,,,9,25,340,12,,,,,,,,,,,,,,,right,0.0849208831787,,,,,participant3,24,59.7303925059,Female,trial,2017_May_25_1532,
,,0.49,"[-6.75, 0]",/sounds/legit/left100.wav,,,,,9,26,341,33,,,,,,,,,,,,,,,left,0.184923887253,,,,,participant3,24,59.7303925059,Female,trial,2017_May_25_1532,
,,0.49,"[0, 0]",/sounds/legit/equal.wav,,,,,9,27,342,3,,,,,,,,,,,,,,,left,0.268295049667,,,,,participant3,24,59.7303925059,Female,trial,2017_May_25_1532,
,,0.36,"[2.25, 0]",/sounds/legit/right30.wav,,,,,9,28,343,7,,,,,,,,,,,,,,,right,0.201587915421,,,,,participant3,24,59.7303925059,Female,trial,2017_May_25_1532,
,,0.1,"[-6.75, 0]",/sounds/legit/left100.wav,,,,,9,29,344,30,,,,,,,,,,,,,,,left,0.234794855118,,,,,participant3,24,59.7303925059,Female,trial,2017_May_25_1532,
,,0.23,"[-6.75, 0]",/sounds/legit/left100.wav,,,,,9,30,345,31,,,,,,,,,,,,,,,left,0.151572942734,,,,,participant3,24,59.7303925059,Female,trial,2017_May_25_1532,
,,0.49,"[-4.5, 0]",/sounds/legit/left60.wav,,,,,9,31,346,28,,,,,,,,,,,,,,,left,0.0848751068115,,,,,participant3,24,59.7303925059,Female,trial,2017_May_25_1532,
,,0.23,"[6.75, 0]",/sounds/legit/right100.wav,,,,,9,32,347,16,,,,,,,,,,,,,,,right,0.0679559707642,,,,,participant3,24,59.7303925059,Female,trial,2017_May_25_1532,
,,0.23,"[-2.25, 0]",/sounds/legit/left30.wav,,,,,9,33,348,21,,,,,,,,,,,,,,,left,0.251973152161,,,,,participant3,24,59.7303925059,Female,trial,2017_May_25_1532,
,,0.1,"[-4.5, 0]",/sounds/legit/left60.wav,,,,,9,34,349,25,,,,,,,,,,,,,,,left,0.318777084351,,,,,participant3,24,59.7303925059,Female,trial,2017_May_25_1532,
,,,,,,,,,,,,,,,,,,,,,,,,,,,,,space,31.6532180309,,,participant3,24,59.7303925059,Female,trial,2017_May_25_1532,
,,0.36,"[4.5, 0]",/sounds/legit/right60.wav,,,,,,,,,0,0,0,12,,,,,,,,,,,,,,,right,2.17288613319,participant3,24,59.7303925059,Female,trial,2017_May_25_1532,
,,0.36,"[-6.75, 0]",/sounds/legit/left100.wav,,,,,,,,,0,1,1,32,,,,,,,,,,,,,,,left,0.786287069321,participant3,24,59.7303925059,Female,trial,2017_May_25_1532,
,,0.1,"[-6.75, 0]",/sounds/legit/left100.wav,,,,,,,,,0,2,2,30,,,,,,,,,,,,,,,left,0.302205085754,participant3,24,59.7303925059,Female,trial,2017_May_25_1532,
,,0.49,"[4.5, 0]",/sounds/legit/right60.wav,,,,,,,,,0,3,3,13,,,,,,,,,,,,,,,right,0.352377891541,participant3,24,59.7303925059,Female,trial,2017_May_25_1532,
,,0.62,"[4.5, 0]",/sounds/legit/right60.wav,,,,,,,,,0,4,4,14,,,,,,,,,,,,,,,right,0.301812171936,participant3,24,59.7303925059,Female,trial,2017_May_25_1532,
,,0.1,"[0, 0]",/sounds/legit/equal.wav,,,,,,,,,0,5,5,0,,,,,,,,,,,,,,,right,2.50683712959,participant3,24,59.7303925059,Female,trial,2017_May_25_1532,
,,0.36,"[6.75, 0]",/sounds/legit/right100.wav,,,,,,,,,0,6,6,17,,,,,,,,,,,,,,,right,0.251981973648,participant3,24,59.7303925059,Female,trial,2017_May_25_1532,
,,0.49,"[0, 0]",/sounds/legit/equal.wav,,,,,,,,,0,7,7,3,,,,,,,,,,,,,,,left,0.71964097023,participant3,24,59.7303925059,Female,trial,2017_May_25_1532,
,,0.1,"[-2.25, 0]",/sounds/legit/left30.wav,,,,,,,,,0,8,8,20,,,,,,,,,,,,,,,left,1.03698205948,participant3,24,59.7303925059,Female,trial,2017_May_25_1532,
,,0.49,"[-6.75, 0]",/sounds/legit/left100.wav,,,,,,,,,0,9,9,33,,,,,,,,,,,,,,,left,0.335532903671,participant3,24,59.7303925059,Female,trial,2017_May_25_1532,
,,0.1,"[-6.75, 0]",/sounds/legit/left100.wav,,,,,,,,,0,10,10,30,,,,,,,,,,,,,,,left,0.385622024536,participant3,24,59.7303925059,Female,trial,2017_May_25_1532,
,,0.23,"[4.5, 0]",/sounds/legit/right60.wav,,,,,,,,,0,11,11,11,,,,,,,,,,,,,,,right,0.285245895386,participant3,24,59.7303925059,Female,trial,2017_May_25_1532,
,,0.62,"[6.75, 0]",/sounds/legit/right100.wav,,,,,,,,,0,12,12,19,,,,,,,,,,,,,,,right,0.21839594841,participant3,24,59.7303925059,Female,trial,2017_May_25_1532,
,,0.36,"[0, 0]",/sounds/legit/equal.wav,,,,,,,,,0,13,13,2,,,,,,,,,,,,,,,right,1.0034301281,participant3,24,59.7303925059,Female,trial,2017_May_25_1532,
,,0.62,"[-6.75, 0]",/sounds/legit/left100.wav,,,,,,,,,0,14,14,34,,,,,,,,,,,,,,,left,0.301852941513,participant3,24,59.7303925059,Female,trial,2017_May_25_1532,
,,0.23,"[-4.5, 0]",/sounds/legit/left60.wav,,,,,,,,,0,15,15,26,,,,,,,,,,,,,,,left,0.26858496666,participant3,24,59.7303925059,Female,trial,2017_May_25_1532,
,,0.23,"[4.5, 0]",/sounds/legit/right60.wav,,,,,,,,,0,16,16,11,,,,,,,,,,,,,,,right,0.285602807999,participant3,24,59.7303925059,Female,trial,2017_May_25_1532,
,,0.62,"[6.75, 0]",/sounds/legit/right100.wav,,,,,,,,,0,17,17,19,,,,,,,,,,,,,,,right,0.252088069916,participant3,24,59.7303925059,Female,trial,2017_May_25_1532,
,,0.49,"[4.5, 0]",/sounds/legit/right60.wav,,,,,,,,,0,18,18,13,,,,,,,,,,,,,,,right,0.25178694725,participant3,24,59.7303925059,Female,trial,2017_May_25_1532,
,,0.62,"[-4.5, 0]",/sounds/legit/left60.wav,,,,,,,,,0,19,19,29,,,,,,,,,,,,,,,left,0.235305070877,participant3,24,59.7303925059,Female,trial,2017_May_25_1532,
,,0.62,"[4.5, 0]",/sounds/legit/right60.wav,,,,,,,,,0,20,20,14,,,,,,,,,,,,,,,right,0.369043111801,participant3,24,59.7303925059,Female,trial,2017_May_25_1532,
,,0.49,"[6.75, 0]",/sounds/legit/right100.wav,,,,,,,,,0,21,21,18,,,,,,,,,,,,,,,right,0.235080003738,participant3,24,59.7303925059,Female,trial,2017_May_25_1532,
,,0.23,"[0, 0]",/sounds/legit/equal.wav,,,,,,,,,0,22,22,1,,,,,,,,,,,,,,,right,0.651831150055,participant3,24,59.7303925059,Female,trial,2017_May_25_1532,
,,0.36,"[4.5, 0]",/sounds/legit/right60.wav,,,,,,,,,0,23,23,12,,,,,,,,,,,,,,,right,0.302170991898,participant3,24,59.7303925059,Female,trial,2017_May_25_1532,
,,0.1,"[-2.25, 0]",/sounds/legit/left30.wav,,,,,,,,,0,24,24,20,,,,,,,,,,,,,,,left,0.569226026535,participant3,24,59.7303925059,Female,trial,2017_May_25_1532,
,,0.23,"[4.5, 0]",/sounds/legit/right60.wav,,,,,,,,,0,25,25,11,,,,,,,,,,,,,,,right,0.33557009697,participant3,24,59.7303925059,Female,trial,2017_May_25_1532,
,,0.1,"[0, 0]",/sounds/legit/equal.wav,,,,,,,,,0,26,26,0,,,,,,,,,,,,,,,right,0.452474832535,participant3,24,59.7303925059,Female,trial,2017_May_25_1532,
,,0.36,"[6.75, 0]",/sounds/legit/right100.wav,,,,,,,,,0,27,27,17,,,,,,,,,,,,,,,right,0.268626213074,participant3,24,59.7303925059,Female,trial,2017_May_25_1532,
,,0.49,"[-6.75, 0]",/sounds/legit/left100.wav,,,,,,,,,0,28,28,33,,,,,,,,,,,,,,,left,0.26860499382,participant3,24,59.7303925059,Female,trial,2017_May_25_1532,
,,0.36,"[2.25, 0]",/sounds/legit/right30.wav,,,,,,,,,0,29,29,7,,,,,,,,,,,,,,,right,0.268512964249,participant3,24,59.7303925059,Female,trial,2017_May_25_1532,
,,0.62,"[-2.25, 0]",/sounds/legit/left30.wav,,,,,,,,,0,30,30,24,,,,,,,,,,,,,,,left,0.384253025055,participant3,24,59.7303925059,Female,trial,2017_May_25_1532,
,,0.1,"[0, 0]",/sounds/legit/equal.wav,,,,,,,,,0,31,31,0,,,,,,,,,,,,,,,right,0.385406017303,participant3,24,59.7303925059,Female,trial,2017_May_25_1532,
,,0.62,"[-6.75, 0]",/sounds/legit/left100.wav,,,,,,,,,0,32,32,34,,,,,,,,,,,,,,,left,0.268765211105,participant3,24,59.7303925059,Female,trial,2017_May_25_1532,
,,0.1,"[-4.5, 0]",/sounds/legit/left60.wav,,,,,,,,,0,33,33,25,,,,,,,,,,,,,,,left,0.351899147034,participant3,24,59.7303925059,Female,trial,2017_May_25_1532,
,,0.1,"[-2.25, 0]",/sounds/legit/left30.wav,,,,,,,,,0,34,34,20,,,,,,,,,,,,,,,left,0.352000951767,participant3,24,59.7303925059,Female,trial,2017_May_25_1532,
,,0.23,"[-2.25, 0]",/sounds/legit/left30.wav,,,,,,,,,1,0,35,21,,,,,,,,,,,,,,,left,0.36861205101,participant3,24,59.7303925059,Female,trial,2017_May_25_1532,
,,0.62,"[-2.25, 0]",/sounds/legit/left30.wav,,,,,,,,,1,1,36,24,,,,,,,,,,,,,,,left,0.352088928223,participant3,24,59.7303925059,Female,trial,2017_May_25_1532,
,,0.1,"[4.5, 0]",/sounds/legit/right60.wav,,,,,,,,,1,2,37,10,,,,,,,,,,,,,,,right,0.201825141907,participant3,24,59.7303925059,Female,trial,2017_May_25_1532,
,,0.49,"[-6.75, 0]",/sounds/legit/left100.wav,,,,,,,,,1,3,38,33,,,,,,,,,,,,,,,left,0.251704931259,participant3,24,59.7303925059,Female,trial,2017_May_25_1532,
,,0.23,"[-2.25, 0]",/sounds/legit/left30.wav,,,,,,,,,1,4,39,21,,,,,,,,,,,,,,,left,0.402079105377,participant3,24,59.7303925059,Female,trial,2017_May_25_1532,
,,0.23,"[6.75, 0]",/sounds/legit/right100.wav,,,,,,,,,1,5,40,16,,,,,,,,,,,,,,,right,0.268602848053,participant3,24,59.7303925059,Female,trial,2017_May_25_1532,
,,0.36,"[-2.25, 0]",/sounds/legit/left30.wav,,,,,,,,,1,6,41,22,,,,,,,,,,,,,,,left,0.251974105835,participant3,24,59.7303925059,Female,trial,2017_May_25_1532,
,,0.49,"[6.75, 0]",/sounds/legit/right100.wav,,,,,,,,,1,7,42,18,,,,,,,,,,,,,,,right,0.235134124756,participant3,24,59.7303925059,Female,trial,2017_May_25_1532,
,,0.49,"[-4.5, 0]",/sounds/legit/left60.wav,,,,,,,,,1,8,43,28,,,,,,,,,,,,,,,left,0.268306016922,participant3,24,59.7303925059,Female,trial,2017_May_25_1532,
,,0.62,"[-4.5, 0]",/sounds/legit/left60.wav,,,,,,,,,1,9,44,29,,,,,,,,,,,,,,,left,0.168309926987,participant3,24,59.7303925059,Female,trial,2017_May_25_1532,
,,0.49,"[-2.25, 0]",/sounds/legit/left30.wav,,,,,,,,,1,10,45,23,,,,,,,,,,,,,,,left,0.335456848145,participant3,24,59.7303925059,Female,trial,2017_May_25_1532,
,,0.23,"[2.25, 0]",/sounds/legit/right30.wav,,,,,,,,,1,11,46,6,,,,,,,,,,,,,,,right,0.218352079391,participant3,24,59.7303925059,Female,trial,2017_May_25_1532,
,,0.62,"[0, 0]",/sounds/legit/equal.wav,,,,,,,,,1,12,47,4,,,,,,,,,,,,,,,right,0.285351991653,participant3,24,59.7303925059,Female,trial,2017_May_25_1532,
,,0.62,"[-4.5, 0]",/sounds/legit/left60.wav,,,,,,,,,1,13,48,29,,,,,,,,,,,,,,,left,0.235542058945,participant3,24,59.7303925059,Female,trial,2017_May_25_1532,
,,0.36,"[6.75, 0]",/sounds/legit/right100.wav,,,,,,,,,1,14,49,17,,,,,,,,,,,,,,,right,0.218523979187,participant3,24,59.7303925059,Female,trial,2017_May_25_1532,
,,0.1,"[-4.5, 0]",/sounds/legit/left60.wav,,,,,,,,,1,15,50,25,,,,,,,,,,,,,,,left,0.218555927277,participant3,24,59.7303925059,Female,trial,2017_May_25_1532,
,,0.1,"[6.75, 0]",/sounds/legit/right100.wav,,,,,,,,,1,16,51,15,,,,,,,,,,,,,,,right,0.251951217651,participant3,24,59.7303925059,Female,trial,2017_May_25_1532,
,,0.23,"[6.75, 0]",/sounds/legit/right100.wav,,,,,,,,,1,17,52,16,,,,,,,,,,,,,,,right,0.268546104431,participant3,24,59.7303925059,Female,trial,2017_May_25_1532,
,,0.49,"[4.5, 0]",/sounds/legit/right60.wav,,,,,,,,,1,18,53,13,,,,,,,,,,,,,,,right,0.285398960114,participant3,24,59.7303925059,Female,trial,2017_May_25_1532,
,,0.23,"[-4.5, 0]",/sounds/legit/left60.wav,,,,,,,,,1,19,54,26,,,,,,,,,,,,,,,left,0.318531990051,participant3,24,59.7303925059,Female,trial,2017_May_25_1532,
,,0.62,"[0, 0]",/sounds/legit/equal.wav,,,,,,,,,1,20,55,4,,,,,,,,,,,,,,,right,0.235214948654,participant3,24,59.7303925059,Female,trial,2017_May_25_1532,
,,0.1,"[2.25, 0]",/sounds/legit/right30.wav,,,,,,,,,1,21,56,5,,,,,,,,,,,,,,,right,0.269139051437,participant3,24,59.7303925059,Female,trial,2017_May_25_1532,
,,0.23,"[4.5, 0]",/sounds/legit/right60.wav,,,,,,,,,1,22,57,11,,,,,,,,,,,,,,,right,0.302267074585,participant3,24,59.7303925059,Female,trial,2017_May_25_1532,
,,0.62,"[-6.75, 0]",/sounds/legit/left100.wav,,,,,,,,,1,23,58,34,,,,,,,,,,,,,,,left,0.302170991898,participant3,24,59.7303925059,Female,trial,2017_May_25_1532,
,,0.62,"[2.25, 0]",/sounds/legit/right30.wav,,,,,,,,,1,24,59,9,,,,,,,,,,,,,,,right,0.25158905983,participant3,24,59.7303925059,Female,trial,2017_May_25_1532,
,,0.49,"[4.5, 0]",/sounds/legit/right60.wav,,,,,,,,,1,25,60,13,,,,,,,,,,,,,,,right,0.218552827835,participant3,24,59.7303925059,Female,trial,2017_May_25_1532,
,,0.49,"[-4.5, 0]",/sounds/legit/left60.wav,,,,,,,,,1,26,61,28,,,,,,,,,,,,,,,left,0.235225915909,participant3,24,59.7303925059,Female,trial,2017_May_25_1532,
,,0.1,"[6.75, 0]",/sounds/legit/right100.wav,,,,,,,,,1,27,62,15,,,,,,,,,,,,,,,right,0.235199213028,participant3,24,59.7303925059,Female,trial,2017_May_25_1532,
,,0.62,"[4.5, 0]",/sounds/legit/right60.wav,,,,,,,,,1,28,63,14,,,,,,,,,,,,,,,right,0.285151004791,participant3,24,59.7303925059,Female,trial,2017_May_25_1532,
,,0.1,"[6.75, 0]",/sounds/legit/right100.wav,,,,,,,,,1,29,64,15,,,,,,,,,,,,,,,right,0.251704931259,participant3,24,59.7303925059,Female,trial,2017_May_25_1532,
,,0.1,"[-4.5, 0]",/sounds/legit/left60.wav,,,,,,,,,1,30,65,25,,,,,,,,,,,,,,,left,0.318658828735,participant3,24,59.7303925059,Female,trial,2017_May_25_1532,
,,0.1,"[-4.5, 0]",/sounds/legit/left60.wav,,,,,,,,,1,31,66,25,,,,,,,,,,,,,,,left,0.218318939209,participant3,24,59.7303925059,Female,trial,2017_May_25_1532,
,,0.36,"[-4.5, 0]",/sounds/legit/left60.wav,,,,,,,,,1,32,67,27,,,,,,,,,,,,,,,left,0.168465137482,participant3,24,59.7303925059,Female,trial,2017_May_25_1532,
,,0.49,"[6.75, 0]",/sounds/legit/right100.wav,,,,,,,,,1,33,68,18,,,,,,,,,,,,,,,right,0.151636123657,participant3,24,59.7303925059,Female,trial,2017_May_25_1532,
,,0.36,"[0, 0]",/sounds/legit/equal.wav,,,,,,,,,1,34,69,2,,,,,,,,,,,,,,,right,0.335531949997,participant3,24,59.7303925059,Female,trial,2017_May_25_1532,
,,0.1,"[4.5, 0]",/sounds/legit/right60.wav,,,,,,,,,2,0,70,10,,,,,,,,,,,,,,,right,0.25225186348,participant3,24,59.7303925059,Female,trial,2017_May_25_1532,
,,0.49,"[2.25, 0]",/sounds/legit/right30.wav,,,,,,,,,2,1,71,8,,,,,,,,,,,,,,,right,0.368722200394,participant3,24,59.7303925059,Female,trial,2017_May_25_1532,
,,0.62,"[4.5, 0]",/sounds/legit/right60.wav,,,,,,,,,2,2,72,14,,,,,,,,,,,,,,,right,0.368845939636,participant3,24,59.7303925059,Female,trial,2017_May_25_1532,
,,0.23,"[2.25, 0]",/sounds/legit/right30.wav,,,,,,,,,2,3,73,6,,,,,,,,,,,,,,,right,0.301878929138,participant3,24,59.7303925059,Female,trial,2017_May_25_1532,
,,0.49,"[0, 0]",/sounds/legit/equal.wav,,,,,,,,,2,4,74,3,,,,,,,,,,,,,,,right,1.00361800194,participant3,24,59.7303925059,Female,trial,2017_May_25_1532,
,,0.1,"[4.5, 0]",/sounds/legit/right60.wav,,,,,,,,,2,5,75,10,,,,,,,,,,,,,,,right,0.268656015396,participant3,24,59.7303925059,Female,trial,2017_May_25_1532,
,,0.36,"[-6.75, 0]",/sounds/legit/left100.wav,,,,,,,,,2,6,76,32,,,,,,,,,,,,,,,left,0.235334157944,participant3,24,59.7303925059,Female,trial,2017_May_25_1532,
,,0.49,"[-2.25, 0]",/sounds/legit/left30.wav,,,,,,,,,2,7,77,23,,,,,,,,,,,,,,,left,0.636140823364,participant3,24,59.7303925059,Female,trial,2017_May_25_1532,
,,0.1,"[2.25, 0]",/sounds/legit/right30.wav,,,,,,,,,2,8,78,5,,,,,,,,,,,,,,,right,0.135226011276,participant3,24,59.7303925059,Female,trial,2017_May_25_1532,
,,0.36,"[-2.25, 0]",/sounds/legit/left30.wav,,,,,,,,,2,9,79,22,,,,,,,,,,,,,,,left,0.218336820602,participant3,24,59.7303925059,Female,trial,2017_May_25_1532,
,,0.23,"[0, 0]",/sounds/legit/equal.wav,,,,,,,,,2,10,80,1,,,,,,,,,,,,,,,right,0.402100086212,participant3,24,59.7303925059,Female,trial,2017_May_25_1532,
,,0.1,"[-6.75, 0]",/sounds/legit/left100.wav,,,,,,,,,2,11,81,30,,,,,,,,,,,,,,,left,0.20185303688,participant3,24,59.7303925059,Female,trial,2017_May_25_1532,
,,0.23,"[4.5, 0]",/sounds/legit/right60.wav,,,,,,,,,2,12,82,11,,,,,,,,,,,,,,,right,0.201789140701,participant3,24,59.7303925059,Female,trial,2017_May_25_1532,
,,0.49,"[6.75, 0]",/sounds/legit/right100.wav,,,,,,,,,2,13,83,18,,,,,,,,,,,,,,,right,0.20176410675,participant3,24,59.7303925059,Female,trial,2017_May_25_1532,
,,0.49,"[-2.25, 0]",/sounds/legit/left30.wav,,,,,,,,,2,14,84,23,,,,,,,,,,,,,,,left,0.268660068512,participant3,24,59.7303925059,Female,trial,2017_May_25_1532,
,,0.49,"[2.25, 0]",/sounds/legit/right30.wav,,,,,,,,,2,15,85,8,,,,,,,,,,,,,,,right,0.402247905731,participant3,24,59.7303925059,Female,trial,2017_May_25_1532,
,,0.23,"[0, 0]",/sounds/legit/equal.wav,,,,,,,,,2,16,86,1,,,,,,,,,,,,,,,left,0.602644920349,participant3,24,59.7303925059,Female,trial,2017_May_25_1532,
,,0.36,"[-2.25, 0]",/sounds/legit/left30.wav,,,,,,,,,2,17,87,22,,,,,,,,,,,,,,,left,0.234992980957,participant3,24,59.7303925059,Female,trial,2017_May_25_1532,
,,0.36,"[6.75, 0]",/sounds/legit/right100.wav,,,,,,,,,2,18,88,17,,,,,,,,,,,,,,,right,0.185141086578,participant3,24,59.7303925059,Female,trial,2017_May_25_1532,
,,0.62,"[-2.25, 0]",/sounds/legit/left30.wav,,,,,,,,,2,19,89,24,,,,,,,,,,,,,,,left,0.335664987564,participant3,24,59.7303925059,Female,trial,2017_May_25_1532,
,,0.49,"[-4.5, 0]",/sounds/legit/left60.wav,,,,,,,,,2,20,90,28,,,,,,,,,,,,,,,left,0.251539945602,participant3,24,59.7303925059,Female,trial,2017_May_25_1532,
,,0.1,"[-6.75, 0]",/sounds/legit/left100.wav,,,,,,,,,2,21,91,30,,,,,,,,,,,,,,,left,0.101588964462,participant3,24,59.7303925059,Female,trial,2017_May_25_1532,
,,0.36,"[2.25, 0]",/sounds/legit/right30.wav,,,,,,,,,2,22,92,7,,,,,,,,,,,,,,,right,0.1017370224,participant3,24,59.7303925059,Female,trial,2017_May_25_1532,
,,0.62,"[-6.75, 0]",/sounds/legit/left100.wav,,,,,,,,,2,23,93,34,,,,,,,,,,,,,,,left,0.201951026917,participant3,24,59.7303925059,Female,trial,2017_May_25_1532,
,,0.1,"[2.25, 0]",/sounds/legit/right30.wav,,,,,,,,,2,24,94,5,,,,,,,,,,,,,,,right,0.302086114883,participant3,24,59.7303925059,Female,trial,2017_May_25_1532,
,,0.23,"[-2.25, 0]",/sounds/legit/left30.wav,,,,,,,,,2,25,95,21,,,,,,,,,,,,,,,left,0.485663890839,participant3,24,59.7303925059,Female,trial,2017_May_25_1532,
,,0.36,"[-6.75, 0]",/sounds/legit/left100.wav,,,,,,,,,2,26,96,32,,,,,,,,,,,,,,,left,0.118160963058,participant3,24,59.7303925059,Female,trial,2017_May_25_1532,
,,0.1,"[-6.75, 0]",/sounds/legit/left100.wav,,,,,,,,,2,27,97,30,,,,,,,,,,,,,,,left,0.285108089447,participant3,24,59.7303925059,Female,trial,2017_May_25_1532,
,,0.1,"[-4.5, 0]",/sounds/legit/left60.wav,,,,,,,,,2,28,98,25,,,,,,,,,,,,,,,left,0.285239219666,participant3,24,59.7303925059,Female,trial,2017_May_25_1532,
,,0.62,"[0, 0]",/sounds/legit/equal.wav,,,,,,,,,2,29,99,4,,,,,,,,,,,,,,,right,0.468901872635,participant3,24,59.7303925059,Female,trial,2017_May_25_1532,
,,0.1,"[4.5, 0]",/sounds/legit/right60.wav,,,,,,,,,2,30,100,10,,,,,,,,,,,,,,,right,0.218461036682,participant3,24,59.7303925059,Female,trial,2017_May_25_1532,
,,0.1,"[-2.25, 0]",/sounds/legit/left30.wav,,,,,,,,,2,31,101,20,,,,,,,,,,,,,,,left,0.334518909454,participant3,24,59.7303925059,Female,trial,2017_May_25_1532,
,,0.36,"[6.75, 0]",/sounds/legit/right100.wav,,,,,,,,,2,32,102,17,,,,,,,,,,,,,,,right,0.285273075104,participant3,24,59.7303925059,Female,trial,2017_May_25_1532,
,,0.23,"[-4.5, 0]",/sounds/legit/left60.wav,,,,,,,,,2,33,103,26,,,,,,,,,,,,,,,left,0.151510000229,participant3,24,59.7303925059,Female,trial,2017_May_25_1532,
,,0.1,"[-6.75, 0]",/sounds/legit/left100.wav,,,,,,,,,2,34,104,30,,,,,,,,,,,,,,,left,0.168276071548,participant3,24,59.7303925059,Female,trial,2017_May_25_1532,
,,0.23,"[6.75, 0]",/sounds/legit/right100.wav,,,,,,,,,3,0,105,16,,,,,,,,,,,,,,,right,0.21869301796,participant3,24,59.7303925059,Female,trial,2017_May_25_1532,
,,0.23,"[2.25, 0]",/sounds/legit/right30.wav,,,,,,,,,3,1,106,6,,,,,,,,,,,,,,,right,0.185212135315,participant3,24,59.7303925059,Female,trial,2017_May_25_1532,
,,0.62,"[2.25, 0]",/sounds/legit/right30.wav,,,,,,,,,3,2,107,9,,,,,,,,,,,,,,,right,0.151834011078,participant3,24,59.7303925059,Female,trial,2017_May_25_1532,
,,0.23,"[-6.75, 0]",/sounds/legit/left100.wav,,,,,,,,,3,3,108,31,,,,,,,,,,,,,,,left,0.151501178741,participant3,24,59.7303925059,Female,trial,2017_May_25_1532,
,,0.49,"[-6.75, 0]",/sounds/legit/left100.wav,,,,,,,,,3,4,109,33,,,,,,,,,,,,,,,left,0.218204975128,participant3,24,59.7303925059,Female,trial,2017_May_25_1532,
,,0.36,"[4.5, 0]",/sounds/legit/right60.wav,,,,,,,,,3,5,110,12,,,,,,,,,,,,,,,right,0.302566051483,participant3,24,59.7303925059,Female,trial,2017_May_25_1532,
,,0.23,"[4.5, 0]",/sounds/legit/right60.wav,,,,,,,,,3,6,111,11,,,,,,,,,,,,,,,right,0.168133020401,participant3,24,59.7303925059,Female,trial,2017_May_25_1532,
,,0.62,"[-6.75, 0]",/sounds/legit/left100.wav,,,,,,,,,3,7,112,34,,,,,,,,,,,,,,,left,0.101444005966,participant3,24,59.7303925059,Female,trial,2017_May_25_1532,
,,0.36,"[-2.25, 0]",/sounds/legit/left30.wav,,,,,,,,,3,8,113,22,,,,,,,,,,,,,,,left,0.251864910126,participant3,24,59.7303925059,Female,trial,2017_May_25_1532,
,,0.36,"[-4.5, 0]",/sounds/legit/left60.wav,,,,,,,,,3,9,114,27,,,,,,,,,,,,,,,left,0.00147104263306,participant3,24,59.7303925059,Female,trial,2017_May_25_1532,
,,0.49,"[-4.5, 0]",/sounds/legit/left60.wav,,,,,,,,,3,10,115,28,,,,,,,,,,,,,,,left,0.285357952118,participant3,24,59.7303925059,Female,trial,2017_May_25_1532,
,,0.62,"[4.5, 0]",/sounds/legit/right60.wav,,,,,,,,,3,11,116,14,,,,,,,,,,,,,,,right,0.101436138153,participant3,24,59.7303925059,Female,trial,2017_May_25_1532,
,,0.49,"[2.25, 0]",/sounds/legit/right30.wav,,,,,,,,,3,12,117,8,,,,,,,,,,,,,,,right,0.100574016571,participant3,24,59.7303925059,Female,trial,2017_May_25_1532,
,,0.49,"[-6.75, 0]",/sounds/legit/left100.wav,,,,,,,,,3,13,118,33,,,,,,,,,,,,,,,left,0.218688011169,participant3,24,59.7303925059,Female,trial,2017_May_25_1532,
,,0.23,"[2.25, 0]",/sounds/legit/right30.wav,,,,,,,,,3,14,119,6,,,,,,,,,,,,,,,right,0.185472011566,participant3,24,59.7303925059,Female,trial,2017_May_25_1532,
,,0.62,"[6.75, 0]",/sounds/legit/right100.wav,,,,,,,,,3,15,120,19,,,,,,,,,,,,,,,right,0.201676130295,participant3,24,59.7303925059,Female,trial,2017_May_25_1532,
,,0.36,"[4.5, 0]",/sounds/legit/right60.wav,,,,,,,,,3,16,121,12,,,,,,,,,,,,,,,right,0.168026924133,participant3,24,59.7303925059,Female,trial,2017_May_25_1532,
,,0.62,"[0, 0]",/sounds/legit/equal.wav,,,,,,,,,3,17,122,4,,,,,,,,,,,,,,,left,0.351941823959,participant3,24,59.7303925059,Female,trial,2017_May_25_1532,
,,0.36,"[2.25, 0]",/sounds/legit/right30.wav,,,,,,,,,3,18,123,7,,,,,,,,,,,,,,,right,0.0848898887634,participant3,24,59.7303925059,Female,trial,2017_May_25_1532,
,,0.23,"[-6.75, 0]",/sounds/legit/left100.wav,,,,,,,,,3,19,124,31,,,,,,,,,,,,,,,left,0.101550102234,participant3,24,59.7303925059,Female,trial,2017_May_25_1532,
,,0.62,"[-4.5, 0]",/sounds/legit/left60.wav,,,,,,,,,3,20,125,29,,,,,,,,,,,,,,,left,0.201838970184,participant3,24,59.7303925059,Female,trial,2017_May_25_1532,
,,0.36,"[0, 0]",/sounds/legit/equal.wav,,,,,,,,,3,21,126,2,,,,,,,,,,,,,,,right,0.251969099045,participant3,24,59.7303925059,Female,trial,2017_May_25_1532,
,,0.1,"[-4.5, 0]",/sounds/legit/left60.wav,,,,,,,,,3,22,127,25,,,,,,,,,,,,,,,left,0.168486118317,participant3,24,59.7303925059,Female,trial,2017_May_25_1532,
,,0.36,"[4.5, 0]",/sounds/legit/right60.wav,,,,,,,,,3,23,128,12,,,,,,,,,,,,,,,right,0.135028123856,participant3,24,59.7303925059,Female,trial,2017_May_25_1532,
,,0.23,"[-2.25, 0]",/sounds/legit/left30.wav,,,,,,,,,3,24,129,21,,,,,,,,,,,,,,,left,0.234997034073,participant3,24,59.7303925059,Female,trial,2017_May_25_1532,
,,0.1,"[4.5, 0]",/sounds/legit/right60.wav,,,,,,,,,3,25,130,10,,,,,,,,,,,,,,,right,0.151660203934,participant3,24,59.7303925059,Female,trial,2017_May_25_1532,
,,0.1,"[6.75, 0]",/sounds/legit/right100.wav,,,,,,,,,3,26,131,15,,,,,,,,,,,,,,,right,0.083878993988,participant3,24,59.7303925059,Female,trial,2017_May_25_1532,
,,0.62,"[2.25, 0]",/sounds/legit/right30.wav,,,,,,,,,3,27,132,9,,,,,,,,,,,,,,,right,0.168482065201,participant3,24,59.7303925059,Female,trial,2017_May_25_1532,
,,0.36,"[4.5, 0]",/sounds/legit/right60.wav,,,,,,,,,3,28,133,12,,,,,,,,,,,,,,,right,0.0514988899231,participant3,24,59.7303925059,Female,trial,2017_May_25_1532,
,,0.36,"[2.25, 0]",/sounds/legit/right30.wav,,,,,,,,,3,29,134,7,,,,,,,,,,,,,,,right,0.552395105362,participant3,24,59.7303925059,Female,trial,2017_May_25_1532,
,,0.36,"[-4.5, 0]",/sounds/legit/left60.wav,,,,,,,,,3,30,135,27,,,,,,,,,,,,,,,left,0.16848897934,participant3,24,59.7303925059,Female,trial,2017_May_25_1532,
,,0.1,"[4.5, 0]",/sounds/legit/right60.wav,,,,,,,,,3,31,136,10,,,,,,,,,,,,,,,right,0.0848331451416,participant3,24,59.7303925059,Female,trial,2017_May_25_1532,
,,0.1,"[-2.25, 0]",/sounds/legit/left30.wav,,,,,,,,,3,32,137,20,,,,,,,,,,,,,,,left,0.285359144211,participant3,24,59.7303925059,Female,trial,2017_May_25_1532,
,,0.1,"[4.5, 0]",/sounds/legit/right60.wav,,,,,,,,,3,33,138,10,,,,,,,,,,,,,,,right,0.368846893311,participant3,24,59.7303925059,Female,trial,2017_May_25_1532,
,,0.23,"[-4.5, 0]",/sounds/legit/left60.wav,,,,,,,,,3,34,139,26,,,,,,,,,,,,,,,left,0.134974956512,participant3,24,59.7303925059,Female,trial,2017_May_25_1532,
,,0.49,"[2.25, 0]",/sounds/legit/right30.wav,,,,,,,,,4,0,140,8,,,,,,,,,,,,,,,right,0.0348188877106,participant3,24,59.7303925059,Female,trial,2017_May_25_1532,
,,0.62,"[-2.25, 0]",/sounds/legit/left30.wav,,,,,,,,,4,1,141,24,,,,,,,,,,,,,,,left,0.0848450660706,participant3,24,59.7303925059,Female,trial,2017_May_25_1532,
,,0.23,"[-6.75, 0]",/sounds/legit/left100.wav,,,,,,,,,4,2,142,31,,,,,,,,,,,,,,,left,0.000399112701416,participant3,24,59.7303925059,Female,trial,2017_May_25_1532,
,,0.1,"[-6.75, 0]",/sounds/legit/left100.wav,,,,,,,,,4,3,143,30,,,,,,,,,,,,,,,left,0.0681021213531,participant3,24,59.7303925059,Female,trial,2017_May_25_1532,
,,0.36,"[2.25, 0]",/sounds/legit/right30.wav,,,,,,,,,4,4,144,7,,,,,,,,,,,,,,,right,0.05140209198,participant3,24,59.7303925059,Female,trial,2017_May_25_1532,
,,0.36,"[-6.75, 0]",/sounds/legit/left100.wav,,,,,,,,,4,5,145,32,,,,,,,,,,,,,,,left,0.0182368755341,participant3,24,59.7303925059,Female,trial,2017_May_25_1532,
,,0.1,"[-6.75, 0]",/sounds/legit/left100.wav,,,,,,,,,4,6,146,30,,,,,,,,,,,,,,,left,0.0682129859924,participant3,24,59.7303925059,Female,trial,2017_May_25_1532,
,,0.36,"[-4.5, 0]",/sounds/legit/left60.wav,,,,,,,,,4,7,147,27,,,,,,,,,,,,,,,left,1.95527601242,participant3,24,59.7303925059,Female,trial,2017_May_25_1532,
,,0.23,"[-2.25, 0]",/sounds/legit/left30.wav,,,,,,,,,4,8,148,21,,,,,,,,,,,,,,,left,0.0179998874664,participant3,24,59.7303925059,Female,trial,2017_May_25_1532,
,,0.1,"[2.25, 0]",/sounds/legit/right30.wav,,,,,,,,,4,9,149,5,,,,,,,,,,,,,,,right,0.836335897446,participant3,24,59.7303925059,Female,trial,2017_May_25_1532,
,,0.49,"[-4.5, 0]",/sounds/legit/left60.wav,,,,,,,,,4,10,150,28,,,,,,,,,,,,,,,left,0.0848879814148,participant3,24,59.7303925059,Female,trial,2017_May_25_1532,
,,0.1,"[-6.75, 0]",/sounds/legit/left100.wav,,,,,,,,,4,11,151,30,,,,,,,,,,,,,,,left,0.0348439216614,participant3,24,59.7303925059,Female,trial,2017_May_25_1532,
,,0.62,"[6.75, 0]",/sounds/legit/right100.wav,,,,,,,,,4,12,152,19,,,,,,,,,,,,,,,right,1.8887219429,participant3,24,59.7303925059,Female,trial,2017_May_25_1532,
,,0.49,"[-2.25, 0]",/sounds/legit/left30.wav,,,,,,,,,4,13,153,23,,,,,,,,,,,,,,,left,0.435613870621,participant3,24,59.7303925059,Female,trial,2017_May_25_1532,
,,0.62,"[-4.5, 0]",/sounds/legit/left60.wav,,,,,,,,,4,14,154,29,,,,,,,,,,,,,,,left,0.352192163467,participant3,24,59.7303925059,Female,trial,2017_May_25_1532,
,,0.49,"[4.5, 0]",/sounds/legit/right60.wav,,,,,,,,,4,15,155,13,,,,,,,,,,,,,,,right,0.185015916824,participant3,24,59.7303925059,Female,trial,2017_May_25_1532,
,,0.23,"[6.75, 0]",/sounds/legit/right100.wav,,,,,,,,,4,16,156,16,,,,,,,,,,,,,,,right,1.55493211746,participant3,24,59.7303925059,Female,trial,2017_May_25_1532,
,,0.23,"[-2.25, 0]",/sounds/legit/left30.wav,,,,,,,,,4,17,157,21,,,,,,,,,,,,,,,left,0.485791921616,participant3,24,59.7303925059,Female,trial,2017_May_25_1532,
,,0.36,"[4.5, 0]",/sounds/legit/right60.wav,,,,,,,,,4,18,158,12,,,,,,,,,,,,,,,right,0.0846910476685,participant3,24,59.7303925059,Female,trial,2017_May_25_1532,
,,0.62,"[-4.5, 0]",/sounds/legit/left60.wav,,,,,,,,,4,19,159,29,,,,,,,,,,,,,,,left,0.335723876953,participant3,24,59.7303925059,Female,trial,2017_May_25_1532,
,,0.49,"[4.5, 0]",/sounds/legit/right60.wav,,,,,,,,,4,20,160,13,,,,,,,,,,,,,,,right,0.06804895401,participant3,24,59.7303925059,Female,trial,2017_May_25_1532,
,,0.36,"[2.25, 0]",/sounds/legit/right30.wav,,,,,,,,,4,21,161,7,,,,,,,,,,,,,,,right,0.101698160172,participant3,24,59.7303925059,Female,trial,2017_May_25_1532,
,,0.62,"[0, 0]",/sounds/legit/equal.wav,,,,,,,,,4,22,162,4,,,,,,,,,,,,,,,right,0.285126924515,participant3,24,59.7303925059,Female,trial,2017_May_25_1532,
,,0.62,"[4.5, 0]",/sounds/legit/right60.wav,,,,,,,,,4,23,163,14,,,,,,,,,,,,,,,right,0.0180230140686,participant3,24,59.7303925059,Female,trial,2017_May_25_1532,
,,0.1,"[4.5, 0]",/sounds/legit/right60.wav,,,,,,,,,4,24,164,10,,,,,,,,,,,,,,,right,0.0680220127106,participant3,24,59.7303925059,Female,trial,2017_May_25_1532,
,,0.49,"[6.75, 0]",/sounds/legit/right100.wav,,,,,,,,,4,25,165,18,,,,,,,,,,,,,,,right,0.0681309700012,participant3,24,59.7303925059,Female,trial,2017_May_25_1532,
,,0.23,"[-4.5, 0]",/sounds/legit/left60.wav,,,,,,,,,4,26,166,26,,,,,,,,,,,,,,,left,0.234210968018,participant3,24,59.7303925059,Female,trial,2017_May_25_1532,
,,0.36,"[-4.5, 0]",/sounds/legit/left60.wav,,,,,,,,,4,27,167,27,,,,,,,,,,,,,,,left,0.201643943787,participant3,24,59.7303925059,Female,trial,2017_May_25_1532,
,,0.23,"[-2.25, 0]",/sounds/legit/left30.wav,,,,,,,,,4,28,168,21,,,,,,,,,,,,,,,left,0.18514585495,participant3,24,59.7303925059,Female,trial,2017_May_25_1532,
,,0.62,"[-4.5, 0]",/sounds/legit/left60.wav,,,,,,,,,4,29,169,29,,,,,,,,,,,,,,,left,0.30203294754,participant3,24,59.7303925059,Female,trial,2017_May_25_1532,
,,0.62,"[-4.5, 0]",/sounds/legit/left60.wav,,,,,,,,,4,30,170,29,,,,,,,,,,,,,,,left,0.0849721431732,participant3,24,59.7303925059,Female,trial,2017_May_25_1532,
,,0.23,"[-4.5, 0]",/sounds/legit/left60.wav,,,,,,,,,4,31,171,26,,,,,,,,,,,,,,,left,0.0178089141846,participant3,24,59.7303925059,Female,trial,2017_May_25_1532,
,,0.49,"[0, 0]",/sounds/legit/equal.wav,,,,,,,,,4,32,172,3,,,,,,,,,,,,,,,right,1.45453000069,participant3,24,59.7303925059,Female,trial,2017_May_25_1532,
,,0.1,"[6.75, 0]",/sounds/legit/right100.wav,,,,,,,,,4,33,173,15,,,,,,,,,,,,,,,right,0.0681049823761,participant3,24,59.7303925059,Female,trial,2017_May_25_1532,
,,0.62,"[0, 0]",/sounds/legit/equal.wav,,,,,,,,,4,34,174,4,,,,,,,,,,,,,,,right,0.40215086937,participant3,24,59.7303925059,Female,trial,2017_May_25_1532,
,,0.49,"[-6.75, 0]",/sounds/legit/left100.wav,,,,,,,,,5,0,175,33,,,,,,,,,,,,,,,left,0.252064943314,participant3,24,59.7303925059,Female,trial,2017_May_25_1532,
,,0.36,"[6.75, 0]",/sounds/legit/right100.wav,,,,,,,,,5,1,176,17,,,,,,,,,,,,,,,right,1.45416998863,participant3,24,59.7303925059,Female,trial,2017_May_25_1532,
,,0.1,"[-4.5, 0]",/sounds/legit/left60.wav,,,,,,,,,5,2,177,25,,,,,,,,,,,,,,,left,0.168467998505,participant3,24,59.7303925059,Female,trial,2017_May_25_1532,
,,0.62,"[2.25, 0]",/sounds/legit/right30.wav,,,,,,,,,5,3,178,9,,,,,,,,,,,,,,,right,0.251909971237,participant3,24,59.7303925059,Female,trial,2017_May_25_1532,
,,0.1,"[-2.25, 0]",/sounds/legit/left30.wav,,,,,,,,,5,4,179,20,,,,,,,,,,,,,,,left,1.40409803391,participant3,24,59.7303925059,Female,trial,2017_May_25_1532,
,,0.62,"[-6.75, 0]",/sounds/legit/left100.wav,,,,,,,,,5,5,180,34,,,,,,,,,,,,,,,left,0.1516289711,participant3,24,59.7303925059,Female,trial,2017_May_25_1532,
,,0.1,"[6.75, 0]",/sounds/legit/right100.wav,,,,,,,,,5,6,181,15,,,,,,,,,,,,,,,right,0.16828584671,participant3,24,59.7303925059,Female,trial,2017_May_25_1532,
,,0.23,"[4.5, 0]",/sounds/legit/right60.wav,,,,,,,,,5,7,182,11,,,,,,,,,,,,,,,right,0.235357999802,participant3,24,59.7303925059,Female,trial,2017_May_25_1532,
,,0.23,"[-6.75, 0]",/sounds/legit/left100.wav,,,,,,,,,5,8,183,31,,,,,,,,,,,,,,,left,0.301972866058,participant3,24,59.7303925059,Female,trial,2017_May_25_1532,
,,0.23,"[-6.75, 0]",/sounds/legit/left100.wav,,,,,,,,,5,9,184,31,,,,,,,,,,,,,,,left,0.218351840973,participant3,24,59.7303925059,Female,trial,2017_May_25_1532,
,,0.62,"[6.75, 0]",/sounds/legit/right100.wav,,,,,,,,,5,10,185,19,,,,,,,,,,,,,,,right,0.201727867126,participant3,24,59.7303925059,Female,trial,2017_May_25_1532,
,,0.1,"[2.25, 0]",/sounds/legit/right30.wav,,,,,,,,,5,11,186,5,,,,,,,,,,,,,,,right,0.1852850914,participant3,24,59.7303925059,Female,trial,2017_May_25_1532,
,,0.1,"[0, 0]",/sounds/legit/equal.wav,,,,,,,,,5,12,187,0,,,,,,,,,,,,,,,right,0.168244123459,participant3,24,59.7303925059,Female,trial,2017_May_25_1532,
,,0.49,"[-4.5, 0]",/sounds/legit/left60.wav,,,,,,,,,5,13,188,28,,,,,,,,,,,,,,,left,0.218482971191,participant3,24,59.7303925059,Female,trial,2017_May_25_1532,
,,0.1,"[0, 0]",/sounds/legit/equal.wav,,,,,,,,,5,14,189,0,,,,,,,,,,,,,,,right,0.118255138397,participant3,24,59.7303925059,Female,trial,2017_May_25_1532,
,,0.49,"[4.5, 0]",/sounds/legit/right60.wav,,,,,,,,,5,15,190,13,,,,,,,,,,,,,,,right,0.0513248443604,participant3,24,59.7303925059,Female,trial,2017_May_25_1532,
,,0.62,"[0, 0]",/sounds/legit/equal.wav,,,,,,,,,5,16,191,4,,,,,,,,,,,,,,,right,0.285148859024,participant3,24,59.7303925059,Female,trial,2017_May_25_1532,
,,0.36,"[0, 0]",/sounds/legit/equal.wav,,,,,,,,,5,17,192,2,,,,,,,,,,,,,,,right,0.101246118546,participant3,24,59.7303925059,Female,trial,2017_May_25_1532,
,,0.49,"[6.75, 0]",/sounds/legit/right100.wav,,,,,,,,,5,18,193,18,,,,,,,,,,,,,,,right,0.0349349975586,participant3,24,59.7303925059,Female,trial,2017_May_25_1532,
,,0.23,"[0, 0]",/sounds/legit/equal.wav,,,,,,,,,5,19,194,1,,,,,,,,,,,,,,,right,0.16835808754,participant3,24,59.7303925059,Female,trial,2017_May_25_1532,
,,0.1,"[2.25, 0]",/sounds/legit/right30.wav,,,,,,,,,5,20,195,5,,,,,,,,,,,,,,,right,0.385670900345,participant3,24,59.7303925059,Female,trial,2017_May_25_1532,
,,0.1,"[0, 0]",/sounds/legit/equal.wav,,,,,,,,,5,21,196,0,,,,,,,,,,,,,,,right,0.168161153793,participant3,24,59.7303925059,Female,trial,2017_May_25_1532,
,,0.62,"[-2.25, 0]",/sounds/legit/left30.wav,,,,,,,,,5,22,197,24,,,,,,,,,,,,,,,left,0.21848988533,participant3,24,59.7303925059,Female,trial,2017_May_25_1532,
,,0.62,"[0, 0]",/sounds/legit/equal.wav,,,,,,,,,5,23,198,4,,,,,,,,,,,,,,,right,0.118228197098,participant3,24,59.7303925059,Female,trial,2017_May_25_1532,
,,0.36,"[-6.75, 0]",/sounds/legit/left100.wav,,,,,,,,,5,24,199,32,,,,,,,,,,,,,,,left,0.201832056046,participant3,24,59.7303925059,Female,trial,2017_May_25_1532,
,,0.23,"[0, 0]",/sounds/legit/equal.wav,,,,,,,,,5,25,200,1,,,,,,,,,,,,,,,right,0.602386951447,participant3,24,59.7303925059,Female,trial,2017_May_25_1532,
,,0.36,"[4.5, 0]",/sounds/legit/right60.wav,,,,,,,,,5,26,201,12,,,,,,,,,,,,,,,right,0.0853521823883,participant3,24,59.7303925059,Female,trial,2017_May_25_1532,
,,0.49,"[-2.25, 0]",/sounds/legit/left30.wav,,,,,,,,,5,27,202,23,,,,,,,,,,,,,,,left,0.218532085419,participant3,24,59.7303925059,Female,trial,2017_May_25_1532,
,,0.62,"[4.5, 0]",/sounds/legit/right60.wav,,,,,,,,,5,28,203,14,,,,,,,,,,,,,,,right,0.134944915771,participant3,24,59.7303925059,Female,trial,2017_May_25_1532,
,,0.49,"[2.25, 0]",/sounds/legit/right30.wav,,,,,,,,,5,29,204,8,,,,,,,,,,,,,,,right,0.1682908535,participant3,24,59.7303925059,Female,trial,2017_May_25_1532,
,,0.1,"[6.75, 0]",/sounds/legit/right100.wav,,,,,,,,,5,30,205,15,,,,,,,,,,,,,,,right,0.118247032166,participant3,24,59.7303925059,Female,trial,2017_May_25_1532,
,,0.23,"[2.25, 0]",/sounds/legit/right30.wav,,,,,,,,,5,31,206,6,,,,,,,,,,,,,,,right,0.468069791794,participant3,24,59.7303925059,Female,trial,2017_May_25_1532,
,,0.62,"[2.25, 0]",/sounds/legit/right30.wav,,,,,,,,,5,32,207,9,,,,,,,,,,,,,,,right,0.151655912399,participant3,24,59.7303925059,Female,trial,2017_May_25_1532,
,,0.1,"[2.25, 0]",/sounds/legit/right30.wav,,,,,,,,,5,33,208,5,,,,,,,,,,,,,,,right,0.084979057312,participant3,24,59.7303925059,Female,trial,2017_May_25_1532,
,,0.36,"[-6.75, 0]",/sounds/legit/left100.wav,,,,,,,,,5,34,209,32,,,,,,,,,,,,,,,left,0.101357936859,participant3,24,59.7303925059,Female,trial,2017_May_25_1532,
,,0.62,"[-6.75, 0]",/sounds/legit/left100.wav,,,,,,,,,6,0,210,34,,,,,,,,,,,,,,,left,0.118340015411,participant3,24,59.7303925059,Female,trial,2017_May_25_1532,
,,0.62,"[-2.25, 0]",/sounds/legit/left30.wav,,,,,,,,,6,1,211,24,,,,,,,,,,,,,,,left,0.218242883682,participant3,24,59.7303925059,Female,trial,2017_May_25_1532,
,,0.49,"[-4.5, 0]",/sounds/legit/left60.wav,,,,,,,,,6,2,212,28,,,,,,,,,,,,,,,left,0.0848071575165,participant3,24,59.7303925059,Female,trial,2017_May_25_1532,
,,0.36,"[-2.25, 0]",/sounds/legit/left30.wav,,,,,,,,,6,3,213,22,,,,,,,,,,,,,,,left,0.31902384758,participant3,24,59.7303925059,Female,trial,2017_May_25_1532,
,,0.36,"[-6.75, 0]",/sounds/legit/left100.wav,,,,,,,,,6,4,214,32,,,,,,,,,,,,,,,left,0.168533802032,participant3,24,59.7303925059,Female,trial,2017_May_25_1532,
,,0.62,"[-6.75, 0]",/sounds/legit/left100.wav,,,,,,,,,6,5,215,34,,,,,,,,,,,,,,,left,0.201609134674,participant3,24,59.7303925059,Female,trial,2017_May_25_1532,
