path,name,noise,location,correspondingAudio,audiotrials.thisRepN,audiotrials.thisTrialN,audiotrials.thisN,audiotrials.thisIndex,visualTrials.thisRepN,visualTrials.thisTrialN,visualTrials.thisN,visualTrials.thisIndex,combinedTrials.thisRepN,combinedTrials.thisTrialN,combinedTrials.thisN,combinedTrials.thisIndex,WelcomeKey.keys,WelcomeKey.rt,key_resp_2.keys,key_resp_2.rt,AudioInstrAccept.keys,AudioInstrAccept.rt,LeftorRight.keys,LeftorRight.rt,VisualBlock.keys,VisualBlock.rt,VisualDecision.keys,VisualDecision.rt,CombinedAccept.keys,CombinedAccept.rt,CombComparisonResponse.keys,CombComparisonResponse.rt,participant,age,frameRate,sex,expName,date,
,,,,,,,,,,,,,,,,,space,25.4350221157,,,,,,,,,,,,,,,participant6,32,59.8712447577,F,trial,2017_May_26_1618,
,,,,,,,,,,,,,,,,,,,space,0.887088060379,,,,,,,,,,,,,participant6,32,59.8712447577,F,trial,2017_May_26_1618,
,,,,,,,,,,,,,,,,,,,,,space,1.50515913963,,,,,,,,,,,participant6,32,59.8712447577,F,trial,2017_May_26_1618,
/sounds/legit/right35.wav,right30,,,,0,0,0,3,,,,,,,,,,,,,,,left,3.69308900833,,,,,,,,,participant6,32,59.8712447577,F,trial,2017_May_26_1618,
/sounds/legit/right100.wav,right100,,,,0,1,1,5,,,,,,,,,,,,,,,right,4.44417119026,,,,,,,,,participant6,32,59.8712447577,F,trial,2017_May_26_1618,
/sounds/legit/left70.wav,left60,,,,0,2,2,1,,,,,,,,,,,,,,,left,0.285023212433,,,,,,,,,participant6,32,59.8712447577,F,trial,2017_May_26_1618,
/sounds/legit/left35.wav,left30,,,,0,3,3,2,,,,,,,,,,,,,,,left,0.0344619750977,,,,,,,,,participant6,32,59.8712447577,F,trial,2017_May_26_1618,
/sounds/legit/right70.wav,right60,,,,0,4,4,4,,,,,,,,,,,,,,,right,0.134780168533,,,,,,,,,participant6,32,59.8712447577,F,trial,2017_May_26_1618,
/sounds/legit/left100.wav,left100,,,,0,5,5,0,,,,,,,,,,,,,,,left,0.13503909111,,,,,,,,,participant6,32,59.8712447577,F,trial,2017_May_26_1618,
/sounds/legit/equal.wav,equal,,,,0,6,6,6,,,,,,,,,,,,,,,left,0.301826953888,,,,,,,,,participant6,32,59.8712447577,F,trial,2017_May_26_1618,
/sounds/legit/left100.wav,left100,,,,1,0,7,0,,,,,,,,,,,,,,,left,0.0179569721222,,,,,,,,,participant6,32,59.8712447577,F,trial,2017_May_26_1618,
/sounds/legit/right100.wav,right100,,,,1,1,8,5,,,,,,,,,,,,,,,right,0.0677909851074,,,,,,,,,participant6,32,59.8712447577,F,trial,2017_May_26_1618,
/sounds/legit/left70.wav,left60,,,,1,2,9,1,,,,,,,,,,,,,,,left,0.0513620376587,,,,,,,,,participant6,32,59.8712447577,F,trial,2017_May_26_1618,
/sounds/legit/left35.wav,left30,,,,1,3,10,2,,,,,,,,,,,,,,,left,0.00119495391846,,,,,,,,,participant6,32,59.8712447577,F,trial,2017_May_26_1618,
/sounds/legit/right35.wav,right30,,,,1,4,11,3,,,,,,,,,,,,,,,right,0.318730831146,,,,,,,,,participant6,32,59.8712447577,F,trial,2017_May_26_1618,
/sounds/legit/right70.wav,right60,,,,1,5,12,4,,,,,,,,,,,,,,,right,0.135390996933,,,,,,,,,participant6,32,59.8712447577,F,trial,2017_May_26_1618,
/sounds/legit/equal.wav,equal,,,,1,6,13,6,,,,,,,,,,,,,,,left,0.185129880905,,,,,,,,,participant6,32,59.8712447577,F,trial,2017_May_26_1618,
/sounds/legit/left70.wav,left60,,,,2,0,14,1,,,,,,,,,,,,,,,left,0.0689001083374,,,,,,,,,participant6,32,59.8712447577,F,trial,2017_May_26_1618,
/sounds/legit/right70.wav,right60,,,,2,1,15,4,,,,,,,,,,,,,,,right,0.970019817352,,,,,,,,,participant6,32,59.8712447577,F,trial,2017_May_26_1618,
/sounds/legit/equal.wav,equal,,,,2,2,16,6,,,,,,,,,,,,,,,left,0.352032184601,,,,,,,,,participant6,32,59.8712447577,F,trial,2017_May_26_1618,
/sounds/legit/left100.wav,left100,,,,2,3,17,0,,,,,,,,,,,,,,,left,1.82155895233,,,,,,,,,participant6,32,59.8712447577,F,trial,2017_May_26_1618,
/sounds/legit/right35.wav,right30,,,,2,4,18,3,,,,,,,,,,,,,,,right,0.201521158218,,,,,,,,,participant6,32,59.8712447577,F,trial,2017_May_26_1618,
/sounds/legit/right100.wav,right100,,,,2,5,19,5,,,,,,,,,,,,,,,right,0.13473200798,,,,,,,,,participant6,32,59.8712447577,F,trial,2017_May_26_1618,
/sounds/legit/left35.wav,left30,,,,2,6,20,2,,,,,,,,,,,,,,,left,0.13479590416,,,,,,,,,participant6,32,59.8712447577,F,trial,2017_May_26_1618,
/sounds/legit/right100.wav,right100,,,,3,0,21,5,,,,,,,,,,,,,,,right,0.184877872467,,,,,,,,,participant6,32,59.8712447577,F,trial,2017_May_26_1618,
/sounds/legit/equal.wav,equal,,,,3,1,22,6,,,,,,,,,,,,,,,left,0.219514131546,,,,,,,,,participant6,32,59.8712447577,F,trial,2017_May_26_1618,
/sounds/legit/left35.wav,left30,,,,3,2,23,2,,,,,,,,,,,,,,,left,0.168219804764,,,,,,,,,participant6,32,59.8712447577,F,trial,2017_May_26_1618,
/sounds/legit/left70.wav,left60,,,,3,3,24,1,,,,,,,,,,,,,,,left,0.0847570896149,,,,,,,,,participant6,32,59.8712447577,F,trial,2017_May_26_1618,
/sounds/legit/left100.wav,left100,,,,3,4,25,0,,,,,,,,,,,,,,,left,0.0505890846252,,,,,,,,,participant6,32,59.8712447577,F,trial,2017_May_26_1618,
/sounds/legit/right70.wav,right60,,,,3,5,26,4,,,,,,,,,,,,,,,right,1.00358486176,,,,,,,,,participant6,32,59.8712447577,F,trial,2017_May_26_1618,
/sounds/legit/right35.wav,right30,,,,3,6,27,3,,,,,,,,,,,,,,,right,0.385433912277,,,,,,,,,participant6,32,59.8712447577,F,trial,2017_May_26_1618,
/sounds/legit/right100.wav,right100,,,,4,0,28,5,,,,,,,,,,,,,,,right,0.21866607666,,,,,,,,,participant6,32,59.8712447577,F,trial,2017_May_26_1618,
/sounds/legit/right70.wav,right60,,,,4,1,29,4,,,,,,,,,,,,,,,right,0.284041166306,,,,,,,,,participant6,32,59.8712447577,F,trial,2017_May_26_1618,
/sounds/legit/left70.wav,left60,,,,4,2,30,1,,,,,,,,,,,,,,,left,1.13679003716,,,,,,,,,participant6,32,59.8712447577,F,trial,2017_May_26_1618,
/sounds/legit/left35.wav,left30,,,,4,3,31,2,,,,,,,,,,,,,,,left,0.101579904556,,,,,,,,,participant6,32,59.8712447577,F,trial,2017_May_26_1618,
/sounds/legit/equal.wav,equal,,,,4,4,32,6,,,,,,,,,,,,,,,left,0.369294881821,,,,,,,,,participant6,32,59.8712447577,F,trial,2017_May_26_1618,
/sounds/legit/left100.wav,left100,,,,4,5,33,0,,,,,,,,,,,,,,,left,0.0847671031952,,,,,,,,,participant6,32,59.8712447577,F,trial,2017_May_26_1618,
/sounds/legit/right35.wav,right30,,,,4,6,34,3,,,,,,,,,,,,,,,right,0.285534143448,,,,,,,,,participant6,32,59.8712447577,F,trial,2017_May_26_1618,
/sounds/legit/left70.wav,left60,,,,5,0,35,1,,,,,,,,,,,,,,,left,0.151729822159,,,,,,,,,participant6,32,59.8712447577,F,trial,2017_May_26_1618,
/sounds/legit/right35.wav,right30,,,,5,1,36,3,,,,,,,,,,,,,,,right,0.218407154083,,,,,,,,,participant6,32,59.8712447577,F,trial,2017_May_26_1618,
/sounds/legit/right70.wav,right60,,,,5,2,37,4,,,,,,,,,,,,,,,right,0.15169095993,,,,,,,,,participant6,32,59.8712447577,F,trial,2017_May_26_1618,
/sounds/legit/left100.wav,left100,,,,5,3,38,0,,,,,,,,,,,,,,,left,0.201788187027,,,,,,,,,participant6,32,59.8712447577,F,trial,2017_May_26_1618,
/sounds/legit/left35.wav,left30,,,,5,4,39,2,,,,,,,,,,,,,,,left,0.135040998459,,,,,,,,,participant6,32,59.8712447577,F,trial,2017_May_26_1618,
/sounds/legit/right100.wav,right100,,,,5,5,40,5,,,,,,,,,,,,,,,right,0.0682408809662,,,,,,,,,participant6,32,59.8712447577,F,trial,2017_May_26_1618,
/sounds/legit/equal.wav,equal,,,,5,6,41,6,,,,,,,,,,,,,,,left,0.285218000412,,,,,,,,,participant6,32,59.8712447577,F,trial,2017_May_26_1618,
/sounds/legit/left100.wav,left100,,,,6,0,42,0,,,,,,,,,,,,,,,left,0.134984016418,,,,,,,,,participant6,32,59.8712447577,F,trial,2017_May_26_1618,
/sounds/legit/right100.wav,right100,,,,6,1,43,5,,,,,,,,,,,,,,,right,0.0679740905762,,,,,,,,,participant6,32,59.8712447577,F,trial,2017_May_26_1618,
/sounds/legit/right35.wav,right30,,,,6,2,44,3,,,,,,,,,,,,,,,right,0.268244028091,,,,,,,,,participant6,32,59.8712447577,F,trial,2017_May_26_1618,
/sounds/legit/equal.wav,equal,,,,6,3,45,6,,,,,,,,,,,,,,,left,0.201565980911,,,,,,,,,participant6,32,59.8712447577,F,trial,2017_May_26_1618,
/sounds/legit/left70.wav,left60,,,,6,4,46,1,,,,,,,,,,,,,,,left,0.267512083054,,,,,,,,,participant6,32,59.8712447577,F,trial,2017_May_26_1618,
/sounds/legit/left35.wav,left30,,,,6,5,47,2,,,,,,,,,,,,,,,left,0.0181968212128,,,,,,,,,participant6,32,59.8712447577,F,trial,2017_May_26_1618,
/sounds/legit/right70.wav,right60,,,,6,6,48,4,,,,,,,,,,,,,,,right,0.0681500434875,,,,,,,,,participant6,32,59.8712447577,F,trial,2017_May_26_1618,
/sounds/legit/right100.wav,right100,,,,7,0,49,5,,,,,,,,,,,,,,,right,0.0681328773499,,,,,,,,,participant6,32,59.8712447577,F,trial,2017_May_26_1618,
/sounds/legit/right35.wav,right30,,,,7,1,50,3,,,,,,,,,,,,,,,left,0.285247087479,,,,,,,,,participant6,32,59.8712447577,F,trial,2017_May_26_1618,
/sounds/legit/left100.wav,left100,,,,7,2,51,0,,,,,,,,,,,,,,,left,0.0179150104523,,,,,,,,,participant6,32,59.8712447577,F,trial,2017_May_26_1618,
/sounds/legit/left35.wav,left30,,,,7,3,52,2,,,,,,,,,,,,,,,left,0.151511907578,,,,,,,,,participant6,32,59.8712447577,F,trial,2017_May_26_1618,
/sounds/legit/right70.wav,right60,,,,7,4,53,4,,,,,,,,,,,,,,,right,0.00127696990967,,,,,,,,,participant6,32,59.8712447577,F,trial,2017_May_26_1618,
/sounds/legit/left70.wav,left60,,,,7,5,54,1,,,,,,,,,,,,,,,left,0.168377876282,,,,,,,,,participant6,32,59.8712447577,F,trial,2017_May_26_1618,
/sounds/legit/equal.wav,equal,,,,7,6,55,6,,,,,,,,,,,,,,,right,0.16862487793,,,,,,,,,participant6,32,59.8712447577,F,trial,2017_May_26_1618,
/sounds/legit/left70.wav,left60,,,,8,0,56,1,,,,,,,,,,,,,,,left,0.0848591327667,,,,,,,,,participant6,32,59.8712447577,F,trial,2017_May_26_1618,
/sounds/legit/left100.wav,left100,,,,8,1,57,0,,,,,,,,,,,,,,,left,0.969857931137,,,,,,,,,participant6,32,59.8712447577,F,trial,2017_May_26_1618,
/sounds/legit/right70.wav,right60,,,,8,2,58,4,,,,,,,,,,,,,,,right,0.0850489139557,,,,,,,,,participant6,32,59.8712447577,F,trial,2017_May_26_1618,
/sounds/legit/right35.wav,right30,,,,8,3,59,3,,,,,,,,,,,,,,,right,0.118229150772,,,,,,,,,participant6,32,59.8712447577,F,trial,2017_May_26_1618,
/sounds/legit/equal.wav,equal,,,,8,4,60,6,,,,,,,,,,,,,,,left,0.318675041199,,,,,,,,,participant6,32,59.8712447577,F,trial,2017_May_26_1618,
/sounds/legit/right100.wav,right100,,,,8,5,61,5,,,,,,,,,,,,,,,right,0.118364095688,,,,,,,,,participant6,32,59.8712447577,F,trial,2017_May_26_1618,
/sounds/legit/left35.wav,left30,,,,8,6,62,2,,,,,,,,,,,,,,,left,0.168207883835,,,,,,,,,participant6,32,59.8712447577,F,trial,2017_May_26_1618,
/sounds/legit/left100.wav,left100,,,,9,0,63,0,,,,,,,,,,,,,,,left,0.134922981262,,,,,,,,,participant6,32,59.8712447577,F,trial,2017_May_26_1618,
/sounds/legit/right100.wav,right100,,,,9,1,64,5,,,,,,,,,,,,,,,right,0.18523812294,,,,,,,,,participant6,32,59.8712447577,F,trial,2017_May_26_1618,
/sounds/legit/equal.wav,equal,,,,9,2,65,6,,,,,,,,,,,,,,,right,0.401822090149,,,,,,,,,participant6,32,59.8712447577,F,trial,2017_May_26_1618,
/sounds/legit/left35.wav,left30,,,,9,3,66,2,,,,,,,,,,,,,,,left,0.151509046555,,,,,,,,,participant6,32,59.8712447577,F,trial,2017_May_26_1618,
/sounds/legit/right35.wav,right30,,,,9,4,67,3,,,,,,,,,,,,,,,right,0.168509960175,,,,,,,,,participant6,32,59.8712447577,F,trial,2017_May_26_1618,
/sounds/legit/right70.wav,right60,,,,9,5,68,4,,,,,,,,,,,,,,,right,0.101361036301,,,,,,,,,participant6,32,59.8712447577,F,trial,2017_May_26_1618,
/sounds/legit/left70.wav,left60,,,,9,6,69,1,,,,,,,,,,,,,,,left,0.168272018433,,,,,,,,,participant6,32,59.8712447577,F,trial,2017_May_26_1618,
,,,,,,,,,,,,,,,,,,,,,,,,,space,1.10435295105,,,,,,,participant6,32,59.8712447577,F,trial,2017_May_26_1618,
,,0.36,"[6.75, 0]",/sounds/legit/right100.wav,,,,,0,0,0,17,,,,,,,,,,,,,,,right,0.385771036148,,,,,participant6,32,59.8712447577,F,trial,2017_May_26_1618,
,,0.62,"[4.5, 0]",/sounds/legit/right70.wav,,,,,0,1,1,14,,,,,,,,,,,,,,,right,0.452042102814,,,,,participant6,32,59.8712447577,F,trial,2017_May_26_1618,
,,0.1,"[-6.75, 0]",/sounds/legit/left100.wav,,,,,0,2,2,30,,,,,,,,,,,,,,,left,0.0182099342346,,,,,participant6,32,59.8712447577,F,trial,2017_May_26_1618,
,,0.1,"[-2.25, 0]",/sounds/legit/left35.wav,,,,,0,3,3,20,,,,,,,,,,,,,,,left,0.135028123856,,,,,participant6,32,59.8712447577,F,trial,2017_May_26_1618,
,,0.23,"[0, 0]",/sounds/legit/equal.wav,,,,,0,4,4,1,,,,,,,,,,,,,,,left,0.4689848423,,,,,participant6,32,59.8712447577,F,trial,2017_May_26_1618,
,,0.49,"[0, 0]",/sounds/legit/equal.wav,,,,,0,5,5,3,,,,,,,,,,,,,,,left,0.468968153,,,,,participant6,32,59.8712447577,F,trial,2017_May_26_1618,
,,0.1,"[4.5, 0]",/sounds/legit/right70.wav,,,,,0,6,6,10,,,,,,,,,,,,,,,right,2.00578403473,,,,,participant6,32,59.8712447577,F,trial,2017_May_26_1618,
,,0.49,"[-4.5, 0]",/sounds/legit/left70.wav,,,,,0,7,7,28,,,,,,,,,,,,,,,left,0.268275976181,,,,,participant6,32,59.8712447577,F,trial,2017_May_26_1618,
,,0.62,"[6.75, 0]",/sounds/legit/right100.wav,,,,,0,8,8,19,,,,,,,,,,,,,,,right,0.167714834213,,,,,participant6,32,59.8712447577,F,trial,2017_May_26_1618,
,,0.49,"[2.25, 0]",/sounds/legit/right35.wav,,,,,0,9,9,8,,,,,,,,,,,,,,,right,2.05576205254,,,,,participant6,32,59.8712447577,F,trial,2017_May_26_1618,
,,0.36,"[-2.25, 0]",/sounds/legit/left35.wav,,,,,0,10,10,22,,,,,,,,,,,,,,,left,0.385375022888,,,,,participant6,32,59.8712447577,F,trial,2017_May_26_1618,
,,0.36,"[-6.75, 0]",/sounds/legit/left100.wav,,,,,0,11,11,32,,,,,,,,,,,,,,,left,0.285423994064,,,,,participant6,32,59.8712447577,F,trial,2017_May_26_1618,
,,0.36,"[4.5, 0]",/sounds/legit/right70.wav,,,,,0,12,12,12,,,,,,,,,,,,,,,right,0.151630878448,,,,,participant6,32,59.8712447577,F,trial,2017_May_26_1618,
,,0.62,"[2.25, 0]",/sounds/legit/right35.wav,,,,,0,13,13,9,,,,,,,,,,,,,,,right,0.485793828964,,,,,participant6,32,59.8712447577,F,trial,2017_May_26_1618,
,,0.62,"[-2.25, 0]",/sounds/legit/left35.wav,,,,,0,14,14,24,,,,,,,,,,,,,,,left,0.419223070145,,,,,participant6,32,59.8712447577,F,trial,2017_May_26_1618,
,,0.1,"[6.75, 0]",/sounds/legit/right100.wav,,,,,0,15,15,15,,,,,,,,,,,,,,,right,0.301905870438,,,,,participant6,32,59.8712447577,F,trial,2017_May_26_1618,
,,0.49,"[6.75, 0]",/sounds/legit/right100.wav,,,,,0,16,16,18,,,,,,,,,,,,,,,right,0.134927988052,,,,,participant6,32,59.8712447577,F,trial,2017_May_26_1618,
,,0.23,"[6.75, 0]",/sounds/legit/right100.wav,,,,,0,17,17,16,,,,,,,,,,,,,,,right,2.22235918045,,,,,participant6,32,59.8712447577,F,trial,2017_May_26_1618,
,,0.23,"[-4.5, 0]",/sounds/legit/left70.wav,,,,,0,18,18,26,,,,,,,,,,,,,,,left,0.117953062057,,,,,participant6,32,59.8712447577,F,trial,2017_May_26_1618,
,,0.1,"[2.25, 0]",/sounds/legit/right35.wav,,,,,0,19,19,5,,,,,,,,,,,,,,,right,0.335139036179,,,,,participant6,32,59.8712447577,F,trial,2017_May_26_1618,
,,0.49,"[-6.75, 0]",/sounds/legit/left100.wav,,,,,0,20,20,33,,,,,,,,,,,,,,,left,0.252065181732,,,,,participant6,32,59.8712447577,F,trial,2017_May_26_1618,
,,0.1,"[0, 0]",/sounds/legit/equal.wav,,,,,0,21,21,0,,,,,,,,,,,,,,,left,0.200755119324,,,,,participant6,32,59.8712447577,F,trial,2017_May_26_1618,
,,0.23,"[-6.75, 0]",/sounds/legit/left100.wav,,,,,0,22,22,31,,,,,,,,,,,,,,,left,0.285130023956,,,,,participant6,32,59.8712447577,F,trial,2017_May_26_1618,
,,0.36,"[2.25, 0]",/sounds/legit/right35.wav,,,,,0,23,23,7,,,,,,,,,,,,,,,right,0.168441057205,,,,,participant6,32,59.8712447577,F,trial,2017_May_26_1618,
,,0.36,"[0, 0]",/sounds/legit/equal.wav,,,,,0,24,24,2,,,,,,,,,,,,,,,left,0.335577011108,,,,,participant6,32,59.8712447577,F,trial,2017_May_26_1618,
,,0.49,"[-2.25, 0]",/sounds/legit/left35.wav,,,,,0,25,25,23,,,,,,,,,,,,,,,left,0.151475191116,,,,,participant6,32,59.8712447577,F,trial,2017_May_26_1618,
,,0.62,"[0, 0]",/sounds/legit/equal.wav,,,,,0,26,26,4,,,,,,,,,,,,,,,left,0.285356044769,,,,,participant6,32,59.8712447577,F,trial,2017_May_26_1618,
,,0.62,"[-6.75, 0]",/sounds/legit/left100.wav,,,,,0,27,27,34,,,,,,,,,,,,,,,left,0.268530845642,,,,,participant6,32,59.8712447577,F,trial,2017_May_26_1618,
,,0.23,"[2.25, 0]",/sounds/legit/right35.wav,,,,,0,28,28,6,,,,,,,,,,,,,,,right,0.0672719478607,,,,,participant6,32,59.8712447577,F,trial,2017_May_26_1618,
,,0.23,"[-2.25, 0]",/sounds/legit/left35.wav,,,,,0,29,29,21,,,,,,,,,,,,,,,left,0.0179059505463,,,,,participant6,32,59.8712447577,F,trial,2017_May_26_1618,
,,0.1,"[-4.5, 0]",/sounds/legit/left70.wav,,,,,0,30,30,25,,,,,,,,,,,,,,,left,0.101344108582,,,,,participant6,32,59.8712447577,F,trial,2017_May_26_1618,
,,0.36,"[-4.5, 0]",/sounds/legit/left70.wav,,,,,0,31,31,27,,,,,,,,,,,,,,,left,0.836539983749,,,,,participant6,32,59.8712447577,F,trial,2017_May_26_1618,
,,0.62,"[-4.5, 0]",/sounds/legit/left70.wav,,,,,0,32,32,29,,,,,,,,,,,,,,,left,0.920047998428,,,,,participant6,32,59.8712447577,F,trial,2017_May_26_1618,
,,0.23,"[4.5, 0]",/sounds/legit/right70.wav,,,,,0,33,33,11,,,,,,,,,,,,,,,right,0.0847909450531,,,,,participant6,32,59.8712447577,F,trial,2017_May_26_1618,
,,0.49,"[4.5, 0]",/sounds/legit/right70.wav,,,,,0,34,34,13,,,,,,,,,,,,,,,right,0.101464986801,,,,,participant6,32,59.8712447577,F,trial,2017_May_26_1618,
,,0.23,"[0, 0]",/sounds/legit/equal.wav,,,,,1,0,35,1,,,,,,,,,,,,,,,left,0.602654933929,,,,,participant6,32,59.8712447577,F,trial,2017_May_26_1618,
,,0.23,"[6.75, 0]",/sounds/legit/right100.wav,,,,,1,1,36,16,,,,,,,,,,,,,,,right,0.00144600868225,,,,,participant6,32,59.8712447577,F,trial,2017_May_26_1618,
,,0.36,"[-6.75, 0]",/sounds/legit/left100.wav,,,,,1,2,37,32,,,,,,,,,,,,,,,left,0.0682289600372,,,,,participant6,32,59.8712447577,F,trial,2017_May_26_1618,
,,0.62,"[-2.25, 0]",/sounds/legit/left35.wav,,,,,1,3,38,24,,,,,,,,,,,,,,,left,0.185676813126,,,,,participant6,32,59.8712447577,F,trial,2017_May_26_1618,
,,0.36,"[4.5, 0]",/sounds/legit/right70.wav,,,,,1,4,39,12,,,,,,,,,,,,,,,right,0.0180687904358,,,,,participant6,32,59.8712447577,F,trial,2017_May_26_1618,
,,0.1,"[-2.25, 0]",/sounds/legit/left35.wav,,,,,1,5,40,20,,,,,,,,,,,,,,,left,1.78865695,,,,,participant6,32,59.8712447577,F,trial,2017_May_26_1618,
,,0.49,"[0, 0]",/sounds/legit/equal.wav,,,,,1,6,41,3,,,,,,,,,,,,,,,left,0.268597126007,,,,,participant6,32,59.8712447577,F,trial,2017_May_26_1618,
,,0.49,"[-2.25, 0]",/sounds/legit/left35.wav,,,,,1,7,42,23,,,,,,,,,,,,,,,left,0.134860038757,,,,,participant6,32,59.8712447577,F,trial,2017_May_26_1618,
,,0.49,"[-6.75, 0]",/sounds/legit/left100.wav,,,,,1,8,43,33,,,,,,,,,,,,,,,left,0.0351119041443,,,,,participant6,32,59.8712447577,F,trial,2017_May_26_1618,
,,0.23,"[-2.25, 0]",/sounds/legit/left35.wav,,,,,1,9,44,21,,,,,,,,,,,,,,,left,0.0849030017853,,,,,participant6,32,59.8712447577,F,trial,2017_May_26_1618,
,,0.1,"[2.25, 0]",/sounds/legit/right35.wav,,,,,1,10,45,5,,,,,,,,,,,,,,,right,0.0178270339966,,,,,participant6,32,59.8712447577,F,trial,2017_May_26_1618,
,,0.36,"[6.75, 0]",/sounds/legit/right100.wav,,,,,1,11,46,17,,,,,,,,,,,,,,,right,0.084860086441,,,,,participant6,32,59.8712447577,F,trial,2017_May_26_1618,
,,0.62,"[-4.5, 0]",/sounds/legit/left70.wav,,,,,1,12,47,29,,,,,,,,,,,,,,,left,0.81974697113,,,,,participant6,32,59.8712447577,F,trial,2017_May_26_1618,
,,0.36,"[0, 0]",/sounds/legit/equal.wav,,,,,1,13,48,2,,,,,,,,,,,,,,,left,0.585744857788,,,,,participant6,32,59.8712447577,F,trial,2017_May_26_1618,
,,0.1,"[6.75, 0]",/sounds/legit/right100.wav,,,,,1,14,49,15,,,,,,,,,,,,,,,right,0.0852570533752,,,,,participant6,32,59.8712447577,F,trial,2017_May_26_1618,
,,0.1,"[0, 0]",/sounds/legit/equal.wav,,,,,1,15,50,0,,,,,,,,,,,,,,,left,0.285357952118,,,,,participant6,32,59.8712447577,F,trial,2017_May_26_1618,
,,0.1,"[-6.75, 0]",/sounds/legit/left100.wav,,,,,1,16,51,30,,,,,,,,,,,,,,,left,1.57140779495,,,,,participant6,32,59.8712447577,F,trial,2017_May_26_1618,
,,0.36,"[2.25, 0]",/sounds/legit/right35.wav,,,,,1,17,52,7,,,,,,,,,,,,,,,right,0.252176046371,,,,,participant6,32,59.8712447577,F,trial,2017_May_26_1618,
,,0.62,"[6.75, 0]",/sounds/legit/right100.wav,,,,,1,18,53,19,,,,,,,,,,,,,,,right,0.301894903183,,,,,participant6,32,59.8712447577,F,trial,2017_May_26_1618,
,,0.62,"[-6.75, 0]",/sounds/legit/left100.wav,,,,,1,19,54,34,,,,,,,,,,,,,,,left,0.351933002472,,,,,participant6,32,59.8712447577,F,trial,2017_May_26_1618,
,,0.23,"[4.5, 0]",/sounds/legit/right70.wav,,,,,1,20,55,11,,,,,,,,,,,,,,,right,0.0849339962006,,,,,participant6,32,59.8712447577,F,trial,2017_May_26_1618,
,,0.36,"[-2.25, 0]",/sounds/legit/left35.wav,,,,,1,21,56,22,,,,,,,,,,,,,,,left,0.352092981339,,,,,participant6,32,59.8712447577,F,trial,2017_May_26_1618,
,,0.23,"[-6.75, 0]",/sounds/legit/left100.wav,,,,,1,22,57,31,,,,,,,,,,,,,,,left,0.318845033646,,,,,participant6,32,59.8712447577,F,trial,2017_May_26_1618,
,,0.62,"[4.5, 0]",/sounds/legit/right70.wav,,,,,1,23,58,14,,,,,,,,,,,,,,,left,0.970515966415,,,,,participant6,32,59.8712447577,F,trial,2017_May_26_1618,
,,0.23,"[2.25, 0]",/sounds/legit/right35.wav,,,,,1,24,59,6,,,,,,,,,,,,,,,right,0.402367115021,,,,,participant6,32,59.8712447577,F,trial,2017_May_26_1618,
,,0.1,"[-4.5, 0]",/sounds/legit/left70.wav,,,,,1,25,60,25,,,,,,,,,,,,,,,left,0.118335962296,,,,,participant6,32,59.8712447577,F,trial,2017_May_26_1618,
,,0.49,"[4.5, 0]",/sounds/legit/right70.wav,,,,,1,26,61,13,,,,,,,,,,,,,,,right,0.05131483078,,,,,participant6,32,59.8712447577,F,trial,2017_May_26_1618,
,,0.49,"[2.25, 0]",/sounds/legit/right35.wav,,,,,1,27,62,8,,,,,,,,,,,,,,,right,0.285366773605,,,,,participant6,32,59.8712447577,F,trial,2017_May_26_1618,
,,0.36,"[-4.5, 0]",/sounds/legit/left70.wav,,,,,1,28,63,27,,,,,,,,,,,,,,,left,0.235105037689,,,,,participant6,32,59.8712447577,F,trial,2017_May_26_1618,
,,0.62,"[0, 0]",/sounds/legit/equal.wav,,,,,1,29,64,4,,,,,,,,,,,,,,,left,0.368840932846,,,,,participant6,32,59.8712447577,F,trial,2017_May_26_1618,
,,0.62,"[2.25, 0]",/sounds/legit/right35.wav,,,,,1,30,65,9,,,,,,,,,,,,,,,right,0.385380029678,,,,,participant6,32,59.8712447577,F,trial,2017_May_26_1618,
,,0.49,"[-4.5, 0]",/sounds/legit/left70.wav,,,,,1,31,66,28,,,,,,,,,,,,,,,left,0.184950113297,,,,,participant6,32,59.8712447577,F,trial,2017_May_26_1618,
,,0.23,"[-4.5, 0]",/sounds/legit/left70.wav,,,,,1,32,67,26,,,,,,,,,,,,,,,left,0.101606845856,,,,,participant6,32,59.8712447577,F,trial,2017_May_26_1618,
,,0.49,"[6.75, 0]",/sounds/legit/right100.wav,,,,,1,33,68,18,,,,,,,,,,,,,,,right,0.301701068878,,,,,participant6,32,59.8712447577,F,trial,2017_May_26_1618,
,,0.1,"[4.5, 0]",/sounds/legit/right70.wav,,,,,1,34,69,10,,,,,,,,,,,,,,,right,0.218352079391,,,,,participant6,32,59.8712447577,F,trial,2017_May_26_1618,
,,0.23,"[-6.75, 0]",/sounds/legit/left100.wav,,,,,2,0,70,31,,,,,,,,,,,,,,,left,0.251790046692,,,,,participant6,32,59.8712447577,F,trial,2017_May_26_1618,
,,0.23,"[0, 0]",/sounds/legit/equal.wav,,,,,2,1,71,1,,,,,,,,,,,,,,,left,0.285031080246,,,,,participant6,32,59.8712447577,F,trial,2017_May_26_1618,
,,0.49,"[6.75, 0]",/sounds/legit/right100.wav,,,,,2,2,72,18,,,,,,,,,,,,,,,right,0.185021877289,,,,,participant6,32,59.8712447577,F,trial,2017_May_26_1618,
,,0.62,"[-4.5, 0]",/sounds/legit/left70.wav,,,,,2,3,73,29,,,,,,,,,,,,,,,left,0.301618099213,,,,,participant6,32,59.8712447577,F,trial,2017_May_26_1618,
,,0.1,"[-2.25, 0]",/sounds/legit/left35.wav,,,,,2,4,74,20,,,,,,,,,,,,,,,left,1.7553589344,,,,,participant6,32,59.8712447577,F,trial,2017_May_26_1618,
,,0.49,"[-2.25, 0]",/sounds/legit/left35.wav,,,,,2,5,75,23,,,,,,,,,,,,,,,left,0.26855802536,,,,,participant6,32,59.8712447577,F,trial,2017_May_26_1618,
,,0.23,"[-2.25, 0]",/sounds/legit/left35.wav,,,,,2,6,76,21,,,,,,,,,,,,,,,left,0.401957988739,,,,,participant6,32,59.8712447577,F,trial,2017_May_26_1618,
,,0.23,"[-4.5, 0]",/sounds/legit/left70.wav,,,,,2,7,77,26,,,,,,,,,,,,,,,left,0.351979970932,,,,,participant6,32,59.8712447577,F,trial,2017_May_26_1618,
,,0.36,"[-6.75, 0]",/sounds/legit/left100.wav,,,,,2,8,78,32,,,,,,,,,,,,,,,left,0.251857995987,,,,,participant6,32,59.8712447577,F,trial,2017_May_26_1618,
,,0.36,"[2.25, 0]",/sounds/legit/right35.wav,,,,,2,9,79,7,,,,,,,,,,,,,,,right,0.319031953812,,,,,participant6,32,59.8712447577,F,trial,2017_May_26_1618,
,,0.49,"[4.5, 0]",/sounds/legit/right70.wav,,,,,2,10,80,13,,,,,,,,,,,,,,,right,0.251770973206,,,,,participant6,32,59.8712447577,F,trial,2017_May_26_1618,
,,0.36,"[-4.5, 0]",/sounds/legit/left70.wav,,,,,2,11,81,27,,,,,,,,,,,,,,,left,0.335449934006,,,,,participant6,32,59.8712447577,F,trial,2017_May_26_1618,
,,0.36,"[-2.25, 0]",/sounds/legit/left35.wav,,,,,2,12,82,22,,,,,,,,,,,,,,,left,0.117239952087,,,,,participant6,32,59.8712447577,F,trial,2017_May_26_1618,
,,0.1,"[-4.5, 0]",/sounds/legit/left70.wav,,,,,2,13,83,25,,,,,,,,,,,,,,,left,0.0344591140747,,,,,participant6,32,59.8712447577,F,trial,2017_May_26_1618,
,,0.36,"[6.75, 0]",/sounds/legit/right100.wav,,,,,2,14,84,17,,,,,,,,,,,,,,,right,0.118282079697,,,,,participant6,32,59.8712447577,F,trial,2017_May_26_1618,
,,0.23,"[6.75, 0]",/sounds/legit/right100.wav,,,,,2,15,85,16,,,,,,,,,,,,,,,right,0.23511505127,,,,,participant6,32,59.8712447577,F,trial,2017_May_26_1618,
,,0.23,"[2.25, 0]",/sounds/legit/right35.wav,,,,,2,16,86,6,,,,,,,,,,,,,,,right,0.485418081284,,,,,participant6,32,59.8712447577,F,trial,2017_May_26_1618,
,,0.62,"[-6.75, 0]",/sounds/legit/left100.wav,,,,,2,17,87,34,,,,,,,,,,,,,,,left,2.48961591721,,,,,participant6,32,59.8712447577,F,trial,2017_May_26_1618,
,,0.62,"[0, 0]",/sounds/legit/equal.wav,,,,,2,18,88,4,,,,,,,,,,,,,,,left,0.485547780991,,,,,participant6,32,59.8712447577,F,trial,2017_May_26_1618,
,,0.1,"[6.75, 0]",/sounds/legit/right100.wav,,,,,2,19,89,15,,,,,,,,,,,,,,,right,0.185034990311,,,,,participant6,32,59.8712447577,F,trial,2017_May_26_1618,
,,0.36,"[0, 0]",/sounds/legit/equal.wav,,,,,2,20,90,2,,,,,,,,,,,,,,,right,2.82398200035,,,,,participant6,32,59.8712447577,F,trial,2017_May_26_1618,
,,0.49,"[-6.75, 0]",/sounds/legit/left100.wav,,,,,2,21,91,33,,,,,,,,,,,,,,,left,0.285367012024,,,,,participant6,32,59.8712447577,F,trial,2017_May_26_1618,
,,0.62,"[6.75, 0]",/sounds/legit/right100.wav,,,,,2,22,92,19,,,,,,,,,,,,,,,right,0.485660076141,,,,,participant6,32,59.8712447577,F,trial,2017_May_26_1618,
,,0.62,"[2.25, 0]",/sounds/legit/right35.wav,,,,,2,23,93,9,,,,,,,,,,,,,,,left,1.77160906792,,,,,participant6,32,59.8712447577,F,trial,2017_May_26_1618,
,,0.23,"[4.5, 0]",/sounds/legit/right70.wav,,,,,2,24,94,11,,,,,,,,,,,,,,,right,0.318638086319,,,,,participant6,32,59.8712447577,F,trial,2017_May_26_1618,
,,0.49,"[0, 0]",/sounds/legit/equal.wav,,,,,2,25,95,3,,,,,,,,,,,,,,,left,0.30180311203,,,,,participant6,32,59.8712447577,F,trial,2017_May_26_1618,
,,0.1,"[-6.75, 0]",/sounds/legit/left100.wav,,,,,2,26,96,30,,,,,,,,,,,,,,,left,0.302088022232,,,,,participant6,32,59.8712447577,F,trial,2017_May_26_1618,
,,0.62,"[4.5, 0]",/sounds/legit/right70.wav,,,,,2,27,97,14,,,,,,,,,,,,,,,left,1.40443587303,,,,,participant6,32,59.8712447577,F,trial,2017_May_26_1618,
,,0.49,"[2.25, 0]",/sounds/legit/right35.wav,,,,,2,28,98,8,,,,,,,,,,,,,,,right,0.368453979492,,,,,participant6,32,59.8712447577,F,trial,2017_May_26_1618,
,,0.1,"[0, 0]",/sounds/legit/equal.wav,,,,,2,29,99,0,,,,,,,,,,,,,,,left,0.402256965637,,,,,participant6,32,59.8712447577,F,trial,2017_May_26_1618,
,,0.1,"[2.25, 0]",/sounds/legit/right35.wav,,,,,2,30,100,5,,,,,,,,,,,,,,,right,0.118408918381,,,,,participant6,32,59.8712447577,F,trial,2017_May_26_1618,
,,0.49,"[-4.5, 0]",/sounds/legit/left70.wav,,,,,2,31,101,28,,,,,,,,,,,,,,,left,0.318510055542,,,,,participant6,32,59.8712447577,F,trial,2017_May_26_1618,
,,0.1,"[4.5, 0]",/sounds/legit/right70.wav,,,,,2,32,102,10,,,,,,,,,,,,,,,right,0.185096979141,,,,,participant6,32,59.8712447577,F,trial,2017_May_26_1618,
,,0.62,"[-2.25, 0]",/sounds/legit/left35.wav,,,,,2,33,103,24,,,,,,,,,,,,,,,left,0.285018205643,,,,,participant6,32,59.8712447577,F,trial,2017_May_26_1618,
,,0.36,"[4.5, 0]",/sounds/legit/right70.wav,,,,,2,34,104,12,,,,,,,,,,,,,,,right,0.251939058304,,,,,participant6,32,59.8712447577,F,trial,2017_May_26_1618,
,,0.1,"[-6.75, 0]",/sounds/legit/left100.wav,,,,,3,0,105,30,,,,,,,,,,,,,,,left,0.30201292038,,,,,participant6,32,59.8712447577,F,trial,2017_May_26_1618,
,,0.23,"[6.75, 0]",/sounds/legit/right100.wav,,,,,3,1,106,16,,,,,,,,,,,,,,,right,0.135269165039,,,,,participant6,32,59.8712447577,F,trial,2017_May_26_1618,
,,0.36,"[-2.25, 0]",/sounds/legit/left35.wav,,,,,3,2,107,22,,,,,,,,,,,,,,,left,0.235208034515,,,,,participant6,32,59.8712447577,F,trial,2017_May_26_1618,
,,0.49,"[6.75, 0]",/sounds/legit/right100.wav,,,,,3,3,108,18,,,,,,,,,,,,,,,right,0.185106992722,,,,,participant6,32,59.8712447577,F,trial,2017_May_26_1618,
,,0.36,"[4.5, 0]",/sounds/legit/right70.wav,,,,,3,4,109,12,,,,,,,,,,,,,,,right,0.151370048523,,,,,participant6,32,59.8712447577,F,trial,2017_May_26_1618,
,,0.23,"[-4.5, 0]",/sounds/legit/left70.wav,,,,,3,5,110,26,,,,,,,,,,,,,,,left,0.318820953369,,,,,participant6,32,59.8712447577,F,trial,2017_May_26_1618,
,,0.62,"[2.25, 0]",/sounds/legit/right35.wav,,,,,3,6,111,9,,,,,,,,,,,,,,,left,1.12039399147,,,,,participant6,32,59.8712447577,F,trial,2017_May_26_1618,
,,0.62,"[-4.5, 0]",/sounds/legit/left70.wav,,,,,3,7,112,29,,,,,,,,,,,,,,,left,0.268364906311,,,,,participant6,32,59.8712447577,F,trial,2017_May_26_1618,
,,0.36,"[-6.75, 0]",/sounds/legit/left100.wav,,,,,3,8,113,32,,,,,,,,,,,,,,,left,0.168273925781,,,,,participant6,32,59.8712447577,F,trial,2017_May_26_1618,
,,0.1,"[4.5, 0]",/sounds/legit/right70.wav,,,,,3,9,114,10,,,,,,,,,,,,,,,right,0.118225097656,,,,,participant6,32,59.8712447577,F,trial,2017_May_26_1618,
,,0.49,"[-4.5, 0]",/sounds/legit/left70.wav,,,,,3,10,115,28,,,,,,,,,,,,,,,left,0.0849258899689,,,,,participant6,32,59.8712447577,F,trial,2017_May_26_1618,
,,0.1,"[-4.5, 0]",/sounds/legit/left70.wav,,,,,3,11,116,25,,,,,,,,,,,,,,,left,1.43772602081,,,,,participant6,32,59.8712447577,F,trial,2017_May_26_1618,
,,0.1,"[6.75, 0]",/sounds/legit/right100.wav,,,,,3,12,117,15,,,,,,,,,,,,,,,right,0.168263196945,,,,,participant6,32,59.8712447577,F,trial,2017_May_26_1618,
,,0.23,"[2.25, 0]",/sounds/legit/right35.wav,,,,,3,13,118,6,,,,,,,,,,,,,,,right,0.702811002731,,,,,participant6,32,59.8712447577,F,trial,2017_May_26_1618,
,,0.23,"[-2.25, 0]",/sounds/legit/left35.wav,,,,,3,14,119,21,,,,,,,,,,,,,,,left,0.535955905914,,,,,participant6,32,59.8712447577,F,trial,2017_May_26_1618,
,,0.1,"[0, 0]",/sounds/legit/equal.wav,,,,,3,15,120,0,,,,,,,,,,,,,,,left,0.568934202194,,,,,participant6,32,59.8712447577,F,trial,2017_May_26_1618,
,,0.36,"[-4.5, 0]",/sounds/legit/left70.wav,,,,,3,16,121,27,,,,,,,,,,,,,,,left,0.435896873474,,,,,participant6,32,59.8712447577,F,trial,2017_May_26_1618,
,,0.49,"[-6.75, 0]",/sounds/legit/left100.wav,,,,,3,17,122,33,,,,,,,,,,,,,,,left,0.285210132599,,,,,participant6,32,59.8712447577,F,trial,2017_May_26_1618,
,,0.49,"[2.25, 0]",/sounds/legit/right35.wav,,,,,3,18,123,8,,,,,,,,,,,,,,,right,0.485890865326,,,,,participant6,32,59.8712447577,F,trial,2017_May_26_1618,
,,0.23,"[-6.75, 0]",/sounds/legit/left100.wav,,,,,3,19,124,31,,,,,,,,,,,,,,,left,0.285085916519,,,,,participant6,32,59.8712447577,F,trial,2017_May_26_1618,
,,0.49,"[-2.25, 0]",/sounds/legit/left35.wav,,,,,3,20,125,23,,,,,,,,,,,,,,,left,0.285411834717,,,,,participant6,32,59.8712447577,F,trial,2017_May_26_1618,
,,0.62,"[4.5, 0]",/sounds/legit/right70.wav,,,,,3,21,126,14,,,,,,,,,,,,,,,right,0.368694067001,,,,,participant6,32,59.8712447577,F,trial,2017_May_26_1618,
,,0.23,"[0, 0]",/sounds/legit/equal.wav,,,,,3,22,127,1,,,,,,,,,,,,,,,left,0.502454996109,,,,,participant6,32,59.8712447577,F,trial,2017_May_26_1618,
,,0.36,"[2.25, 0]",/sounds/legit/right35.wav,,,,,3,23,128,7,,,,,,,,,,,,,,,right,0.435534954071,,,,,participant6,32,59.8712447577,F,trial,2017_May_26_1618,
,,0.62,"[-6.75, 0]",/sounds/legit/left100.wav,,,,,3,24,129,34,,,,,,,,,,,,,,,left,0.418967008591,,,,,participant6,32,59.8712447577,F,trial,2017_May_26_1618,
,,0.62,"[-2.25, 0]",/sounds/legit/left35.wav,,,,,3,25,130,24,,,,,,,,,,,,,,,left,0.402229070663,,,,,participant6,32,59.8712447577,F,trial,2017_May_26_1618,
,,0.49,"[4.5, 0]",/sounds/legit/right70.wav,,,,,3,26,131,13,,,,,,,,,,,,,,,right,0.369174957275,,,,,participant6,32,59.8712447577,F,trial,2017_May_26_1618,
,,0.23,"[4.5, 0]",/sounds/legit/right70.wav,,,,,3,27,132,11,,,,,,,,,,,,,,,right,0.300995111465,,,,,participant6,32,59.8712447577,F,trial,2017_May_26_1618,
,,0.1,"[-2.25, 0]",/sounds/legit/left35.wav,,,,,3,28,133,20,,,,,,,,,,,,,,,left,0.351912975311,,,,,participant6,32,59.8712447577,F,trial,2017_May_26_1618,
,,0.62,"[6.75, 0]",/sounds/legit/right100.wav,,,,,3,29,134,19,,,,,,,,,,,,,,,right,0.351986885071,,,,,participant6,32,59.8712447577,F,trial,2017_May_26_1618,
,,0.36,"[6.75, 0]",/sounds/legit/right100.wav,,,,,3,30,135,17,,,,,,,,,,,,,,,right,0.23527097702,,,,,participant6,32,59.8712447577,F,trial,2017_May_26_1618,
,,0.62,"[0, 0]",/sounds/legit/equal.wav,,,,,3,31,136,4,,,,,,,,,,,,,,,left,0.5358710289,,,,,participant6,32,59.8712447577,F,trial,2017_May_26_1618,
,,0.49,"[0, 0]",/sounds/legit/equal.wav,,,,,3,32,137,3,,,,,,,,,,,,,,,left,0.268671035767,,,,,participant6,32,59.8712447577,F,trial,2017_May_26_1618,
,,0.1,"[2.25, 0]",/sounds/legit/right35.wav,,,,,3,33,138,5,,,,,,,,,,,,,,,right,0.151706933975,,,,,participant6,32,59.8712447577,F,trial,2017_May_26_1618,
,,0.36,"[0, 0]",/sounds/legit/equal.wav,,,,,3,34,139,2,,,,,,,,,,,,,,,right,1.1870470047,,,,,participant6,32,59.8712447577,F,trial,2017_May_26_1618,
,,0.49,"[4.5, 0]",/sounds/legit/right70.wav,,,,,4,0,140,13,,,,,,,,,,,,,,,right,0.235705852509,,,,,participant6,32,59.8712447577,F,trial,2017_May_26_1618,
,,0.23,"[2.25, 0]",/sounds/legit/right35.wav,,,,,4,1,141,6,,,,,,,,,,,,,,,right,0.185331106186,,,,,participant6,32,59.8712447577,F,trial,2017_May_26_1618,
,,0.36,"[0, 0]",/sounds/legit/equal.wav,,,,,4,2,142,2,,,,,,,,,,,,,,,left,0.669781208038,,,,,participant6,32,59.8712447577,F,trial,2017_May_26_1618,
,,0.1,"[6.75, 0]",/sounds/legit/right100.wav,,,,,4,3,143,15,,,,,,,,,,,,,,,right,0.33534693718,,,,,participant6,32,59.8712447577,F,trial,2017_May_26_1618,
,,0.62,"[6.75, 0]",/sounds/legit/right100.wav,,,,,4,4,144,19,,,,,,,,,,,,,,,right,0.386159181595,,,,,participant6,32,59.8712447577,F,trial,2017_May_26_1618,
,,0.23,"[-6.75, 0]",/sounds/legit/left100.wav,,,,,4,5,145,31,,,,,,,,,,,,,,,left,0.335223913193,,,,,participant6,32,59.8712447577,F,trial,2017_May_26_1618,
,,0.36,"[-4.5, 0]",/sounds/legit/left70.wav,,,,,4,6,146,27,,,,,,,,,,,,,,,left,0.00127005577087,,,,,participant6,32,59.8712447577,F,trial,2017_May_26_1618,
,,0.23,"[6.75, 0]",/sounds/legit/right100.wav,,,,,4,7,147,16,,,,,,,,,,,,,,,right,0.134609937668,,,,,participant6,32,59.8712447577,F,trial,2017_May_26_1618,
,,0.49,"[-6.75, 0]",/sounds/legit/left100.wav,,,,,4,8,148,33,,,,,,,,,,,,,,,left,0.101593017578,,,,,participant6,32,59.8712447577,F,trial,2017_May_26_1618,
,,0.36,"[4.5, 0]",/sounds/legit/right70.wav,,,,,4,9,149,12,,,,,,,,,,,,,,,right,0.0680558681488,,,,,participant6,32,59.8712447577,F,trial,2017_May_26_1618,
,,0.62,"[2.25, 0]",/sounds/legit/right35.wav,,,,,4,10,150,9,,,,,,,,,,,,,,,right,0.20182299614,,,,,participant6,32,59.8712447577,F,trial,2017_May_26_1618,
,,0.36,"[6.75, 0]",/sounds/legit/right100.wav,,,,,4,11,151,17,,,,,,,,,,,,,,,right,0.135196208954,,,,,participant6,32,59.8712447577,F,trial,2017_May_26_1618,
,,0.1,"[-4.5, 0]",/sounds/legit/left70.wav,,,,,4,12,152,25,,,,,,,,,,,,,,,left,0.201657056808,,,,,participant6,32,59.8712447577,F,trial,2017_May_26_1618,
,,0.62,"[-4.5, 0]",/sounds/legit/left70.wav,,,,,4,13,153,29,,,,,,,,,,,,,,,left,0.402317047119,,,,,participant6,32,59.8712447577,F,trial,2017_May_26_1618,
,,0.23,"[-2.25, 0]",/sounds/legit/left35.wav,,,,,4,14,154,21,,,,,,,,,,,,,,,left,1.98883199692,,,,,participant6,32,59.8712447577,F,trial,2017_May_26_1618,
,,0.36,"[2.25, 0]",/sounds/legit/right35.wav,,,,,4,15,155,7,,,,,,,,,,,,,,,right,0.418812990189,,,,,participant6,32,59.8712447577,F,trial,2017_May_26_1618,
,,0.62,"[-2.25, 0]",/sounds/legit/left35.wav,,,,,4,16,156,24,,,,,,,,,,,,,,,left,0.385557889938,,,,,participant6,32,59.8712447577,F,trial,2017_May_26_1618,
,,0.49,"[2.25, 0]",/sounds/legit/right35.wav,,,,,4,17,157,8,,,,,,,,,,,,,,,right,0.385155916214,,,,,participant6,32,59.8712447577,F,trial,2017_May_26_1618,
,,0.1,"[2.25, 0]",/sounds/legit/right35.wav,,,,,4,18,158,5,,,,,,,,,,,,,,,right,0.352281808853,,,,,participant6,32,59.8712447577,F,trial,2017_May_26_1618,
,,0.1,"[-2.25, 0]",/sounds/legit/left35.wav,,,,,4,19,159,20,,,,,,,,,,,,,,,left,0.402143001556,,,,,participant6,32,59.8712447577,F,trial,2017_May_26_1618,
,,0.36,"[-6.75, 0]",/sounds/legit/left100.wav,,,,,4,20,160,32,,,,,,,,,,,,,,,left,0.401847839355,,,,,participant6,32,59.8712447577,F,trial,2017_May_26_1618,
,,0.49,"[6.75, 0]",/sounds/legit/right100.wav,,,,,4,21,161,18,,,,,,,,,,,,,,,right,0.318646192551,,,,,participant6,32,59.8712447577,F,trial,2017_May_26_1618,
,,0.62,"[0, 0]",/sounds/legit/equal.wav,,,,,4,22,162,4,,,,,,,,,,,,,,,left,0.452430009842,,,,,participant6,32,59.8712447577,F,trial,2017_May_26_1618,
,,0.62,"[4.5, 0]",/sounds/legit/right70.wav,,,,,4,23,163,14,,,,,,,,,,,,,,,right,0.234920024872,,,,,participant6,32,59.8712447577,F,trial,2017_May_26_1618,
,,0.23,"[4.5, 0]",/sounds/legit/right70.wav,,,,,4,24,164,11,,,,,,,,,,,,,,,right,0.151600122452,,,,,participant6,32,59.8712447577,F,trial,2017_May_26_1618,
,,0.1,"[4.5, 0]",/sounds/legit/right70.wav,,,,,4,25,165,10,,,,,,,,,,,,,,,right,0.118283033371,,,,,participant6,32,59.8712447577,F,trial,2017_May_26_1618,
,,0.49,"[0, 0]",/sounds/legit/equal.wav,,,,,4,26,166,3,,,,,,,,,,,,,,,left,0.519455909729,,,,,participant6,32,59.8712447577,F,trial,2017_May_26_1618,
,,0.1,"[0, 0]",/sounds/legit/equal.wav,,,,,4,27,167,0,,,,,,,,,,,,,,,left,0.318620204926,,,,,participant6,32,59.8712447577,F,trial,2017_May_26_1618,
,,0.62,"[-6.75, 0]",/sounds/legit/left100.wav,,,,,4,28,168,34,,,,,,,,,,,,,,,left,0.602615833282,,,,,participant6,32,59.8712447577,F,trial,2017_May_26_1618,
,,0.23,"[0, 0]",/sounds/legit/equal.wav,,,,,4,29,169,1,,,,,,,,,,,,,,,left,0.285284996033,,,,,participant6,32,59.8712447577,F,trial,2017_May_26_1618,
,,0.23,"[-4.5, 0]",/sounds/legit/left70.wav,,,,,4,30,170,26,,,,,,,,,,,,,,,left,0.101292848587,,,,,participant6,32,59.8712447577,F,trial,2017_May_26_1618,
,,0.1,"[-6.75, 0]",/sounds/legit/left100.wav,,,,,4,31,171,30,,,,,,,,,,,,,,,left,0.252218008041,,,,,participant6,32,59.8712447577,F,trial,2017_May_26_1618,
,,0.49,"[-4.5, 0]",/sounds/legit/left70.wav,,,,,4,32,172,28,,,,,,,,,,,,,,,left,0.485867023468,,,,,participant6,32,59.8712447577,F,trial,2017_May_26_1618,
,,0.36,"[-2.25, 0]",/sounds/legit/left35.wav,,,,,4,33,173,22,,,,,,,,,,,,,,,left,0.185084104538,,,,,participant6,32,59.8712447577,F,trial,2017_May_26_1618,
,,0.49,"[-2.25, 0]",/sounds/legit/left35.wav,,,,,4,34,174,23,,,,,,,,,,,,,,,left,0.268481969833,,,,,participant6,32,59.8712447577,F,trial,2017_May_26_1618,
,,0.1,"[4.5, 0]",/sounds/legit/right70.wav,,,,,5,0,175,10,,,,,,,,,,,,,,,right,0.435480117798,,,,,participant6,32,59.8712447577,F,trial,2017_May_26_1618,
,,0.49,"[6.75, 0]",/sounds/legit/right100.wav,,,,,5,1,176,18,,,,,,,,,,,,,,,right,0.368762969971,,,,,participant6,32,59.8712447577,F,trial,2017_May_26_1618,
,,0.49,"[-6.75, 0]",/sounds/legit/left100.wav,,,,,5,2,177,33,,,,,,,,,,,,,,,left,0.569044828415,,,,,participant6,32,59.8712447577,F,trial,2017_May_26_1618,
,,0.49,"[-4.5, 0]",/sounds/legit/left70.wav,,,,,5,3,178,28,,,,,,,,,,,,,,,left,0.301937103271,,,,,participant6,32,59.8712447577,F,trial,2017_May_26_1618,
,,0.62,"[-4.5, 0]",/sounds/legit/left70.wav,,,,,5,4,179,29,,,,,,,,,,,,,,,left,0.385347127914,,,,,participant6,32,59.8712447577,F,trial,2017_May_26_1618,
,,0.49,"[2.25, 0]",/sounds/legit/right35.wav,,,,,5,5,180,8,,,,,,,,,,,,,,,right,0.418992042542,,,,,participant6,32,59.8712447577,F,trial,2017_May_26_1618,
,,0.23,"[4.5, 0]",/sounds/legit/right70.wav,,,,,5,6,181,11,,,,,,,,,,,,,,,right,0.235401153564,,,,,participant6,32,59.8712447577,F,trial,2017_May_26_1618,
,,0.23,"[-6.75, 0]",/sounds/legit/left100.wav,,,,,5,7,182,31,,,,,,,,,,,,,,,left,0.335424900055,,,,,participant6,32,59.8712447577,F,trial,2017_May_26_1618,
,,0.23,"[-2.25, 0]",/sounds/legit/left35.wav,,,,,5,8,183,21,,,,,,,,,,,,,,,left,0.285041809082,,,,,participant6,32,59.8712447577,F,trial,2017_May_26_1618,
,,0.23,"[0, 0]",/sounds/legit/equal.wav,,,,,5,9,184,1,,,,,,,,,,,,,,,left,0.351989984512,,,,,participant6,32,59.8712447577,F,trial,2017_May_26_1618,
,,0.49,"[4.5, 0]",/sounds/legit/right70.wav,,,,,5,10,185,13,,,,,,,,,,,,,,,right,5.4797809124,,,,,participant6,32,59.8712447577,F,trial,2017_May_26_1618,
,,0.1,"[-4.5, 0]",/sounds/legit/left70.wav,,,,,5,11,186,25,,,,,,,,,,,,,,,left,0.185340166092,,,,,participant6,32,59.8712447577,F,trial,2017_May_26_1618,
,,0.49,"[-2.25, 0]",/sounds/legit/left35.wav,,,,,5,12,187,23,,,,,,,,,,,,,,,left,0.535701990128,,,,,participant6,32,59.8712447577,F,trial,2017_May_26_1618,
,,0.36,"[4.5, 0]",/sounds/legit/right70.wav,,,,,5,13,188,12,,,,,,,,,,,,,,,right,0.33504319191,,,,,participant6,32,59.8712447577,F,trial,2017_May_26_1618,
,,0.23,"[-4.5, 0]",/sounds/legit/left70.wav,,,,,5,14,189,26,,,,,,,,,,,,,,,left,0.185005903244,,,,,participant6,32,59.8712447577,F,trial,2017_May_26_1618,
,,0.1,"[0, 0]",/sounds/legit/equal.wav,,,,,5,15,190,0,,,,,,,,,,,,,,,left,0.168356895447,,,,,participant6,32,59.8712447577,F,trial,2017_May_26_1618,
,,0.62,"[2.25, 0]",/sounds/legit/right35.wav,,,,,5,16,191,9,,,,,,,,,,,,,,,right,0.66944694519,,,,,participant6,32,59.8712447577,F,trial,2017_May_26_1618,
,,0.36,"[2.25, 0]",/sounds/legit/right35.wav,,,,,5,17,192,7,,,,,,,,,,,,,,,right,0.318651199341,,,,,participant6,32,59.8712447577,F,trial,2017_May_26_1618,
,,0.23,"[2.25, 0]",/sounds/legit/right35.wav,,,,,5,18,193,6,,,,,,,,,,,,,,,right,0.702740907669,,,,,participant6,32,59.8712447577,F,trial,2017_May_26_1618,
,,0.23,"[6.75, 0]",/sounds/legit/right100.wav,,,,,5,19,194,16,,,,,,,,,,,,,,,right,0.184823036194,,,,,participant6,32,59.8712447577,F,trial,2017_May_26_1618,
,,0.49,"[0, 0]",/sounds/legit/equal.wav,,,,,5,20,195,3,,,,,,,,,,,,,,,left,0.786010026932,,,,,participant6,32,59.8712447577,F,trial,2017_May_26_1618,
,,0.62,"[-6.75, 0]",/sounds/legit/left100.wav,,,,,5,21,196,34,,,,,,,,,,,,,,,left,0.418960094452,,,,,participant6,32,59.8712447577,F,trial,2017_May_26_1618,
,,0.36,"[-2.25, 0]",/sounds/legit/left35.wav,,,,,5,22,197,22,,,,,,,,,,,,,,,left,0.0510470867157,,,,,participant6,32,59.8712447577,F,trial,2017_May_26_1618,
,,0.1,"[-6.75, 0]",/sounds/legit/left100.wav,,,,,5,23,198,30,,,,,,,,,,,,,,,left,0.301978111267,,,,,participant6,32,59.8712447577,F,trial,2017_May_26_1618,
,,0.62,"[0, 0]",/sounds/legit/equal.wav,,,,,5,24,199,4,,,,,,,,,,,,,,,right,1.63802289963,,,,,participant6,32,59.8712447577,F,trial,2017_May_26_1618,
,,0.1,"[6.75, 0]",/sounds/legit/right100.wav,,,,,5,25,200,15,,,,,,,,,,,,,,,right,0.352132081985,,,,,participant6,32,59.8712447577,F,trial,2017_May_26_1618,
,,0.36,"[-4.5, 0]",/sounds/legit/left70.wav,,,,,5,26,201,27,,,,,,,,,,,,,,,left,0.368788003922,,,,,participant6,32,59.8712447577,F,trial,2017_May_26_1618,
,,0.36,"[0, 0]",/sounds/legit/equal.wav,,,,,5,27,202,2,,,,,,,,,,,,,,,left,0.300883054733,,,,,participant6,32,59.8712447577,F,trial,2017_May_26_1618,
,,0.36,"[-6.75, 0]",/sounds/legit/left100.wav,,,,,5,28,203,32,,,,,,,,,,,,,,,left,0.218891143799,,,,,participant6,32,59.8712447577,F,trial,2017_May_26_1618,
,,0.1,"[-2.25, 0]",/sounds/legit/left35.wav,,,,,5,29,204,20,,,,,,,,,,,,,,,left,0.101292133331,,,,,participant6,32,59.8712447577,F,trial,2017_May_26_1618,
,,0.62,"[4.5, 0]",/sounds/legit/right70.wav,,,,,5,30,205,14,,,,,,,,,,,,,,,right,0.335093975067,,,,,participant6,32,59.8712447577,F,trial,2017_May_26_1618,
,,0.62,"[6.75, 0]",/sounds/legit/right100.wav,,,,,5,31,206,19,,,,,,,,,,,,,,,right,0.301432847977,,,,,participant6,32,59.8712447577,F,trial,2017_May_26_1618,
,,0.1,"[2.25, 0]",/sounds/legit/right35.wav,,,,,5,32,207,5,,,,,,,,,,,,,,,right,0.185136795044,,,,,participant6,32,59.8712447577,F,trial,2017_May_26_1618,
,,0.62,"[-2.25, 0]",/sounds/legit/left35.wav,,,,,5,33,208,24,,,,,,,,,,,,,,,left,0.35213804245,,,,,participant6,32,59.8712447577,F,trial,2017_May_26_1618,
,,0.36,"[6.75, 0]",/sounds/legit/right100.wav,,,,,5,34,209,17,,,,,,,,,,,,,,,right,0.301695108414,,,,,participant6,32,59.8712447577,F,trial,2017_May_26_1618,
,,0.49,"[-2.25, 0]",/sounds/legit/left35.wav,,,,,6,0,210,23,,,,,,,,,,,,,,,left,0.552515029907,,,,,participant6,32,59.8712447577,F,trial,2017_May_26_1618,
,,0.1,"[0, 0]",/sounds/legit/equal.wav,,,,,6,1,211,0,,,,,,,,,,,,,,,left,0.0682260990143,,,,,participant6,32,59.8712447577,F,trial,2017_May_26_1618,
,,0.23,"[-4.5, 0]",/sounds/legit/left70.wav,,,,,6,2,212,26,,,,,,,,,,,,,,,left,0.00126194953918,,,,,participant6,32,59.8712447577,F,trial,2017_May_26_1618,
,,0.49,"[4.5, 0]",/sounds/legit/right70.wav,,,,,6,3,213,13,,,,,,,,,,,,,,,left,2.52337312698,,,,,participant6,32,59.8712447577,F,trial,2017_May_26_1618,
,,0.62,"[-6.75, 0]",/sounds/legit/left100.wav,,,,,6,4,214,34,,,,,,,,,,,,,,,left,0.301926136017,,,,,participant6,32,59.8712447577,F,trial,2017_May_26_1618,
,,0.36,"[-4.5, 0]",/sounds/legit/left70.wav,,,,,6,5,215,27,,,,,,,,,,,,,,,left,0.26845908165,,,,,participant6,32,59.8712447577,F,trial,2017_May_26_1618,
,,0.1,"[-4.5, 0]",/sounds/legit/left70.wav,,,,,6,6,216,25,,,,,,,,,,,,,,,left,0.218472957611,,,,,participant6,32,59.8712447577,F,trial,2017_May_26_1618,
,,0.23,"[-2.25, 0]",/sounds/legit/left35.wav,,,,,6,7,217,21,,,,,,,,,,,,,,,left,0.452253103256,,,,,participant6,32,59.8712447577,F,trial,2017_May_26_1618,
,,0.23,"[6.75, 0]",/sounds/legit/right100.wav,,,,,6,8,218,16,,,,,,,,,,,,,,,right,0.252113103867,,,,,participant6,32,59.8712447577,F,trial,2017_May_26_1618,
,,0.1,"[-6.75, 0]",/sounds/legit/left100.wav,,,,,6,9,219,30,,,,,,,,,,,,,,,left,0.0516440868378,,,,,participant6,32,59.8712447577,F,trial,2017_May_26_1618,
,,0.49,"[6.75, 0]",/sounds/legit/right100.wav,,,,,6,10,220,18,,,,,,,,,,,,,,,right,0.51911687851,,,,,participant6,32,59.8712447577,F,trial,2017_May_26_1618,
,,0.62,"[-2.25, 0]",/sounds/legit/left35.wav,,,,,6,11,221,24,,,,,,,,,,,,,,,left,0.452188968658,,,,,participant6,32,59.8712447577,F,trial,2017_May_26_1618,
,,0.62,"[6.75, 0]",/sounds/legit/right100.wav,,,,,6,12,222,19,,,,,,,,,,,,,,,right,0.185404062271,,,,,participant6,32,59.8712447577,F,trial,2017_May_26_1618,
,,0.49,"[0, 0]",/sounds/legit/equal.wav,,,,,6,13,223,3,,,,,,,,,,,,,,,left,0.502274990082,,,,,participant6,32,59.8712447577,F,trial,2017_May_26_1618,
,,0.49,"[-6.75, 0]",/sounds/legit/left100.wav,,,,,6,14,224,33,,,,,,,,,,,,,,,left,1.95552110672,,,,,participant6,32,59.8712447577,F,trial,2017_May_26_1618,
,,0.36,"[-6.75, 0]",/sounds/legit/left100.wav,,,,,6,15,225,32,,,,,,,,,,,,,,,left,0.43545794487,,,,,participant6,32,59.8712447577,F,trial,2017_May_26_1618,
,,0.1,"[6.75, 0]",/sounds/legit/right100.wav,,,,,6,16,226,15,,,,,,,,,,,,,,,right,0.218672990799,,,,,participant6,32,59.8712447577,F,trial,2017_May_26_1618,
,,0.62,"[2.25, 0]",/sounds/legit/right35.wav,,,,,6,17,227,9,,,,,,,,,,,,,,,left,0.836630105972,,,,,participant6,32,59.8712447577,F,trial,2017_May_26_1618,
,,0.1,"[2.25, 0]",/sounds/legit/right35.wav,,,,,6,18,228,5,,,,,,,,,,,,,,,right,0.468711137772,,,,,participant6,32,59.8712447577,F,trial,2017_May_26_1618,
,,0.23,"[0, 0]",/sounds/legit/equal.wav,,,,,6,19,229,1,,,,,,,,,,,,,,,left,0.368849039078,,,,,participant6,32,59.8712447577,F,trial,2017_May_26_1618,
,,0.62,"[-4.5, 0]",/sounds/legit/left70.wav,,,,,6,20,230,29,,,,,,,,,,,,,,,left,0.452591896057,,,,,participant6,32,59.8712447577,F,trial,2017_May_26_1618,
,,0.23,"[4.5, 0]",/sounds/legit/right70.wav,,,,,6,21,231,11,,,,,,,,,,,,,,,right,0.335332870483,,,,,participant6,32,59.8712447577,F,trial,2017_May_26_1618,
,,0.49,"[2.25, 0]",/sounds/legit/right35.wav,,,,,6,22,232,8,,,,,,,,,,,,,,,right,0.0682439804077,,,,,participant6,32,59.8712447577,F,trial,2017_May_26_1618,
,,0.23,"[2.25, 0]",/sounds/legit/right35.wav,,,,,6,23,233,6,,,,,,,,,,,,,,,right,0.118269920349,,,,,participant6,32,59.8712447577,F,trial,2017_May_26_1618,
,,0.23,"[-6.75, 0]",/sounds/legit/left100.wav,,,,,6,24,234,31,,,,,,,,,,,,,,,left,0.201802968979,,,,,participant6,32,59.8712447577,F,trial,2017_May_26_1618,
,,0.36,"[2.25, 0]",/sounds/legit/right35.wav,,,,,6,25,235,7,,,,,,,,,,,,,,,right,0.235113143921,,,,,participant6,32,59.8712447577,F,trial,2017_May_26_1618,
,,0.36,"[6.75, 0]",/sounds/legit/right100.wav,,,,,6,26,236,17,,,,,,,,,,,,,,,right,0.185020923615,,,,,participant6,32,59.8712447577,F,trial,2017_May_26_1618,
,,0.62,"[0, 0]",/sounds/legit/equal.wav,,,,,6,27,237,4,,,,,,,,,,,,,,,left,0.502334117889,,,,,participant6,32,59.8712447577,F,trial,2017_May_26_1618,
,,0.36,"[-2.25, 0]",/sounds/legit/left35.wav,,,,,6,28,238,22,,,,,,,,,,,,,,,left,0.118058919907,,,,,participant6,32,59.8712447577,F,trial,2017_May_26_1618,
,,0.1,"[4.5, 0]",/sounds/legit/right70.wav,,,,,6,29,239,10,,,,,,,,,,,,,,,right,0.235373973846,,,,,participant6,32,59.8712447577,F,trial,2017_May_26_1618,
,,0.49,"[-4.5, 0]",/sounds/legit/left70.wav,,,,,6,30,240,28,,,,,,,,,,,,,,,left,0.135093927383,,,,,participant6,32,59.8712447577,F,trial,2017_May_26_1618,
,,0.36,"[4.5, 0]",/sounds/legit/right70.wav,,,,,6,31,241,12,,,,,,,,,,,,,,,right,2.12156391144,,,,,participant6,32,59.8712447577,F,trial,2017_May_26_1618,
,,0.1,"[-2.25, 0]",/sounds/legit/left35.wav,,,,,6,32,242,20,,,,,,,,,,,,,,,left,0.235141992569,,,,,participant6,32,59.8712447577,F,trial,2017_May_26_1618,
,,0.62,"[4.5, 0]",/sounds/legit/right70.wav,,,,,6,33,243,14,,,,,,,,,,,,,,,right,0.652801990509,,,,,participant6,32,59.8712447577,F,trial,2017_May_26_1618,
,,0.36,"[0, 0]",/sounds/legit/equal.wav,,,,,6,34,244,2,,,,,,,,,,,,,,,left,0.20180606842,,,,,participant6,32,59.8712447577,F,trial,2017_May_26_1618,
,,0.49,"[-2.25, 0]",/sounds/legit/left35.wav,,,,,7,0,245,23,,,,,,,,,,,,,,,left,0.268211126328,,,,,participant6,32,59.8712447577,F,trial,2017_May_26_1618,
,,0.23,"[6.75, 0]",/sounds/legit/right100.wav,,,,,7,1,246,16,,,,,,,,,,,,,,,right,0.118083953857,,,,,participant6,32,59.8712447577,F,trial,2017_May_26_1618,
,,0.49,"[-4.5, 0]",/sounds/legit/left70.wav,,,,,7,2,247,28,,,,,,,,,,,,,,,left,0.435377120972,,,,,participant6,32,59.8712447577,F,trial,2017_May_26_1618,
,,0.1,"[2.25, 0]",/sounds/legit/right35.wav,,,,,7,3,248,5,,,,,,,,,,,,,,,right,0.184963941574,,,,,participant6,32,59.8712447577,F,trial,2017_May_26_1618,
,,0.23,"[-6.75, 0]",/sounds/legit/left100.wav,,,,,7,4,249,31,,,,,,,,,,,,,,,left,0.0847330093384,,,,,participant6,32,59.8712447577,F,trial,2017_May_26_1618,
,,0.1,"[6.75, 0]",/sounds/legit/right100.wav,,,,,7,5,250,15,,,,,,,,,,,,,,,right,0.118316888809,,,,,participant6,32,59.8712447577,F,trial,2017_May_26_1618,
,,0.62,"[2.25, 0]",/sounds/legit/right35.wav,,,,,7,6,251,9,,,,,,,,,,,,,,,left,3.1411550045,,,,,participant6,32,59.8712447577,F,trial,2017_May_26_1618,
,,0.49,"[6.75, 0]",/sounds/legit/right100.wav,,,,,7,7,252,18,,,,,,,,,,,,,,,right,2.42282009125,,,,,participant6,32,59.8712447577,F,trial,2017_May_26_1618,
,,0.23,"[2.25, 0]",/sounds/legit/right35.wav,,,,,7,8,253,6,,,,,,,,,,,,,,,right,0.235210895538,,,,,participant6,32,59.8712447577,F,trial,2017_May_26_1618,
,,0.1,"[-2.25, 0]",/sounds/legit/left35.wav,,,,,7,9,254,20,,,,,,,,,,,,,,,left,0.0513339042664,,,,,participant6,32,59.8712447577,F,trial,2017_May_26_1618,
,,0.36,"[2.25, 0]",/sounds/legit/right35.wav,,,,,7,10,255,7,,,,,,,,,,,,,,,right,0.00131607055664,,,,,participant6,32,59.8712447577,F,trial,2017_May_26_1618,
,,0.62,"[0, 0]",/sounds/legit/equal.wav,,,,,7,11,256,4,,,,,,,,,,,,,,,right,0.619535923004,,,,,participant6,32,59.8712447577,F,trial,2017_May_26_1618,
,,0.36,"[6.75, 0]",/sounds/legit/right100.wav,,,,,7,12,257,17,,,,,,,,,,,,,,,right,0.385486841202,,,,,participant6,32,59.8712447577,F,trial,2017_May_26_1618,
,,0.23,"[4.5, 0]",/sounds/legit/right70.wav,,,,,7,13,258,11,,,,,,,,,,,,,,,right,1.92217206955,,,,,participant6,32,59.8712447577,F,trial,2017_May_26_1618,
,,0.49,"[2.25, 0]",/sounds/legit/right35.wav,,,,,7,14,259,8,,,,,,,,,,,,,,,right,0.335376977921,,,,,participant6,32,59.8712447577,F,trial,2017_May_26_1618,
,,0.36,"[-6.75, 0]",/sounds/legit/left100.wav,,,,,7,15,260,32,,,,,,,,,,,,,,,left,0.301907062531,,,,,participant6,32,59.8712447577,F,trial,2017_May_26_1618,
,,0.1,"[-4.5, 0]",/sounds/legit/left70.wav,,,,,7,16,261,25,,,,,,,,,,,,,,,left,0.13493680954,,,,,participant6,32,59.8712447577,F,trial,2017_May_26_1618,
,,0.1,"[0, 0]",/sounds/legit/equal.wav,,,,,7,17,262,0,,,,,,,,,,,,,,,left,0.369009017944,,,,,participant6,32,59.8712447577,F,trial,2017_May_26_1618,
,,0.23,"[0, 0]",/sounds/legit/equal.wav,,,,,7,18,263,1,,,,,,,,,,,,,,,left,0.936616182327,,,,,participant6,32,59.8712447577,F,trial,2017_May_26_1618,
,,0.36,"[4.5, 0]",/sounds/legit/right70.wav,,,,,7,19,264,12,,,,,,,,,,,,,,,right,0.519039154053,,,,,participant6,32,59.8712447577,F,trial,2017_May_26_1618,
,,0.23,"[-2.25, 0]",/sounds/legit/left35.wav,,,,,7,20,265,21,,,,,,,,,,,,,,,left,0.418506860733,,,,,participant6,32,59.8712447577,F,trial,2017_May_26_1618,
,,0.36,"[-2.25, 0]",/sounds/legit/left35.wav,,,,,7,21,266,22,,,,,,,,,,,,,,,left,0.502821922302,,,,,participant6,32,59.8712447577,F,trial,2017_May_26_1618,
,,0.1,"[-6.75, 0]",/sounds/legit/left100.wav,,,,,7,22,267,30,,,,,,,,,,,,,,,left,0.285520076752,,,,,participant6,32,59.8712447577,F,trial,2017_May_26_1618,
,,0.49,"[-6.75, 0]",/sounds/legit/left100.wav,,,,,7,23,268,33,,,,,,,,,,,,,,,left,0.235042095184,,,,,participant6,32,59.8712447577,F,trial,2017_May_26_1618,
,,0.62,"[-4.5, 0]",/sounds/legit/left70.wav,,,,,7,24,269,29,,,,,,,,,,,,,,,left,0.402299880981,,,,,participant6,32,59.8712447577,F,trial,2017_May_26_1618,
,,0.62,"[4.5, 0]",/sounds/legit/right70.wav,,,,,7,25,270,14,,,,,,,,,,,,,,,right,0.786454916,,,,,participant6,32,59.8712447577,F,trial,2017_May_26_1618,
,,0.1,"[4.5, 0]",/sounds/legit/right70.wav,,,,,7,26,271,10,,,,,,,,,,,,,,,right,0.251929998398,,,,,participant6,32,59.8712447577,F,trial,2017_May_26_1618,
,,0.36,"[-4.5, 0]",/sounds/legit/left70.wav,,,,,7,27,272,27,,,,,,,,,,,,,,,left,0.519004106522,,,,,participant6,32,59.8712447577,F,trial,2017_May_26_1618,
,,0.36,"[0, 0]",/sounds/legit/equal.wav,,,,,7,28,273,2,,,,,,,,,,,,,,,left,0.302047014236,,,,,participant6,32,59.8712447577,F,trial,2017_May_26_1618,
,,0.23,"[-4.5, 0]",/sounds/legit/left70.wav,,,,,7,29,274,26,,,,,,,,,,,,,,,left,0.234542131424,,,,,participant6,32,59.8712447577,F,trial,2017_May_26_1618,
,,0.62,"[-6.75, 0]",/sounds/legit/left100.wav,,,,,7,30,275,34,,,,,,,,,,,,,,,left,0.185161828995,,,,,participant6,32,59.8712447577,F,trial,2017_May_26_1618,
,,0.49,"[0, 0]",/sounds/legit/equal.wav,,,,,7,31,276,3,,,,,,,,,,,,,,,left,0.318979024887,,,,,participant6,32,59.8712447577,F,trial,2017_May_26_1618,
,,0.62,"[6.75, 0]",/sounds/legit/right100.wav,,,,,7,32,277,19,,,,,,,,,,,,,,,right,0.135195016861,,,,,participant6,32,59.8712447577,F,trial,2017_May_26_1618,
,,0.49,"[4.5, 0]",/sounds/legit/right70.wav,,,,,7,33,278,13,,,,,,,,,,,,,,,right,0.218459129333,,,,,participant6,32,59.8712447577,F,trial,2017_May_26_1618,
,,0.62,"[-2.25, 0]",/sounds/legit/left35.wav,,,,,7,34,279,24,,,,,,,,,,,,,,,left,0.201770067215,,,,,participant6,32,59.8712447577,F,trial,2017_May_26_1618,
,,0.36,"[-4.5, 0]",/sounds/legit/left70.wav,,,,,8,0,280,27,,,,,,,,,,,,,,,left,0.25301194191,,,,,participant6,32,59.8712447577,F,trial,2017_May_26_1618,
,,0.1,"[4.5, 0]",/sounds/legit/right70.wav,,,,,8,1,281,10,,,,,,,,,,,,,,,right,0.168117046356,,,,,participant6,32,59.8712447577,F,trial,2017_May_26_1618,
,,0.36,"[2.25, 0]",/sounds/legit/right35.wav,,,,,8,2,282,7,,,,,,,,,,,,,,,right,0.202787160873,,,,,participant6,32,59.8712447577,F,trial,2017_May_26_1618,
,,0.49,"[0, 0]",/sounds/legit/equal.wav,,,,,8,3,283,3,,,,,,,,,,,,,,,left,0.402209997177,,,,,participant6,32,59.8712447577,F,trial,2017_May_26_1618,
,,0.23,"[-4.5, 0]",/sounds/legit/left70.wav,,,,,8,4,284,26,,,,,,,,,,,,,,,left,0.352112054825,,,,,participant6,32,59.8712447577,F,trial,2017_May_26_1618,
,,0.36,"[6.75, 0]",/sounds/legit/right100.wav,,,,,8,5,285,17,,,,,,,,,,,,,,,right,0.502569913864,,,,,participant6,32,59.8712447577,F,trial,2017_May_26_1618,
,,0.1,"[2.25, 0]",/sounds/legit/right35.wav,,,,,8,6,286,5,,,,,,,,,,,,,,,right,0.0839159488678,,,,,participant6,32,59.8712447577,F,trial,2017_May_26_1618,
,,0.36,"[-2.25, 0]",/sounds/legit/left35.wav,,,,,8,7,287,22,,,,,,,,,,,,,,,left,0.235347986221,,,,,participant6,32,59.8712447577,F,trial,2017_May_26_1618,
,,0.62,"[-4.5, 0]",/sounds/legit/left70.wav,,,,,8,8,288,29,,,,,,,,,,,,,,,left,0.686355113983,,,,,participant6,32,59.8712447577,F,trial,2017_May_26_1618,
,,0.23,"[0, 0]",/sounds/legit/equal.wav,,,,,8,9,289,1,,,,,,,,,,,,,,,left,0.569072008133,,,,,participant6,32,59.8712447577,F,trial,2017_May_26_1618,
,,0.62,"[0, 0]",/sounds/legit/equal.wav,,,,,8,10,290,4,,,,,,,,,,,,,,,left,0.268523931503,,,,,participant6,32,59.8712447577,F,trial,2017_May_26_1618,
,,0.62,"[-2.25, 0]",/sounds/legit/left35.wav,,,,,8,11,291,24,,,,,,,,,,,,,,,left,0.151570081711,,,,,participant6,32,59.8712447577,F,trial,2017_May_26_1618,
,,0.49,"[-2.25, 0]",/sounds/legit/left35.wav,,,,,8,12,292,23,,,,,,,,,,,,,,,left,0.00159287452698,,,,,participant6,32,59.8712447577,F,trial,2017_May_26_1618,
,,0.62,"[-6.75, 0]",/sounds/legit/left100.wav,,,,,8,13,293,34,,,,,,,,,,,,,,,right,0.769867181778,,,,,participant6,32,59.8712447577,F,trial,2017_May_26_1618,
,,0.49,"[2.25, 0]",/sounds/legit/right35.wav,,,,,8,14,294,8,,,,,,,,,,,,,,,right,0.903173208237,,,,,participant6,32,59.8712447577,F,trial,2017_May_26_1618,
,,0.36,"[-6.75, 0]",/sounds/legit/left100.wav,,,,,8,15,295,32,,,,,,,,,,,,,,,left,0.418857812881,,,,,participant6,32,59.8712447577,F,trial,2017_May_26_1618,
,,0.23,"[2.25, 0]",/sounds/legit/right35.wav,,,,,8,16,296,6,,,,,,,,,,,,,,,right,0.285274028778,,,,,participant6,32,59.8712447577,F,trial,2017_May_26_1618,
,,0.1,"[-6.75, 0]",/sounds/legit/left100.wav,,,,,8,17,297,30,,,,,,,,,,,,,,,left,0.0181329250336,,,,,participant6,32,59.8712447577,F,trial,2017_May_26_1618,
,,0.1,"[-4.5, 0]",/sounds/legit/left70.wav,,,,,8,18,298,25,,,,,,,,,,,,,,,left,1.75546121597,,,,,participant6,32,59.8712447577,F,trial,2017_May_26_1618,
,,0.49,"[-6.75, 0]",/sounds/legit/left100.wav,,,,,8,19,299,33,,,,,,,,,,,,,,,left,1.10268902779,,,,,participant6,32,59.8712447577,F,trial,2017_May_26_1618,
,,0.23,"[6.75, 0]",/sounds/legit/right100.wav,,,,,8,20,300,16,,,,,,,,,,,,,,,right,0.45235991478,,,,,participant6,32,59.8712447577,F,trial,2017_May_26_1618,
,,0.62,"[4.5, 0]",/sounds/legit/right70.wav,,,,,8,21,301,14,,,,,,,,,,,,,,,right,2.27265501022,,,,,participant6,32,59.8712447577,F,trial,2017_May_26_1618,
,,0.1,"[6.75, 0]",/sounds/legit/right100.wav,,,,,8,22,302,15,,,,,,,,,,,,,,,right,0.13488483429,,,,,participant6,32,59.8712447577,F,trial,2017_May_26_1618,
,,0.49,"[6.75, 0]",/sounds/legit/right100.wav,,,,,8,23,303,18,,,,,,,,,,,,,,,right,0.502119064331,,,,,participant6,32,59.8712447577,F,trial,2017_May_26_1618,
,,0.36,"[4.5, 0]",/sounds/legit/right70.wav,,,,,8,24,304,12,,,,,,,,,,,,,,,right,0.335597038269,,,,,participant6,32,59.8712447577,F,trial,2017_May_26_1618,
,,0.62,"[6.75, 0]",/sounds/legit/right100.wav,,,,,8,25,305,19,,,,,,,,,,,,,,,right,1.03691005707,,,,,participant6,32,59.8712447577,F,trial,2017_May_26_1618,
,,0.49,"[-4.5, 0]",/sounds/legit/left70.wav,,,,,8,26,306,28,,,,,,,,,,,,,,,left,0.318625926971,,,,,participant6,32,59.8712447577,F,trial,2017_May_26_1618,
,,0.23,"[-6.75, 0]",/sounds/legit/left100.wav,,,,,8,27,307,31,,,,,,,,,,,,,,,left,0.0682208538055,,,,,participant6,32,59.8712447577,F,trial,2017_May_26_1618,
,,0.36,"[0, 0]",/sounds/legit/equal.wav,,,,,8,28,308,2,,,,,,,,,,,,,,,left,0.586014986038,,,,,participant6,32,59.8712447577,F,trial,2017_May_26_1618,
,,0.62,"[2.25, 0]",/sounds/legit/right35.wav,,,,,8,29,309,9,,,,,,,,,,,,,,,right,0.468677043915,,,,,participant6,32,59.8712447577,F,trial,2017_May_26_1618,
,,0.1,"[-2.25, 0]",/sounds/legit/left35.wav,,,,,8,30,310,20,,,,,,,,,,,,,,,left,0.118427038193,,,,,participant6,32,59.8712447577,F,trial,2017_May_26_1618,
,,0.1,"[0, 0]",/sounds/legit/equal.wav,,,,,8,31,311,0,,,,,,,,,,,,,,,left,0.268741846085,,,,,participant6,32,59.8712447577,F,trial,2017_May_26_1618,
,,0.23,"[4.5, 0]",/sounds/legit/right70.wav,,,,,8,32,312,11,,,,,,,,,,,,,,,right,0.235192060471,,,,,participant6,32,59.8712447577,F,trial,2017_May_26_1618,
,,0.49,"[4.5, 0]",/sounds/legit/right70.wav,,,,,8,33,313,13,,,,,,,,,,,,,,,right,1.18782401085,,,,,participant6,32,59.8712447577,F,trial,2017_May_26_1618,
,,0.23,"[-2.25, 0]",/sounds/legit/left35.wav,,,,,8,34,314,21,,,,,,,,,,,,,,,left,0.118227005005,,,,,participant6,32,59.8712447577,F,trial,2017_May_26_1618,
,,0.49,"[0, 0]",/sounds/legit/equal.wav,,,,,9,0,315,3,,,,,,,,,,,,,,,right,0.652575969696,,,,,participant6,32,59.8712447577,F,trial,2017_May_26_1618,
,,0.23,"[2.25, 0]",/sounds/legit/right35.wav,,,,,9,1,316,6,,,,,,,,,,,,,,,right,0.335331201553,,,,,participant6,32,59.8712447577,F,trial,2017_May_26_1618,
,,0.49,"[-4.5, 0]",/sounds/legit/left70.wav,,,,,9,2,317,28,,,,,,,,,,,,,,,left,0.151700973511,,,,,participant6,32,59.8712447577,F,trial,2017_May_26_1618,
,,0.62,"[6.75, 0]",/sounds/legit/right100.wav,,,,,9,3,318,19,,,,,,,,,,,,,,,right,0.953615903854,,,,,participant6,32,59.8712447577,F,trial,2017_May_26_1618,
,,0.1,"[2.25, 0]",/sounds/legit/right35.wav,,,,,9,4,319,5,,,,,,,,,,,,,,,right,0.101487874985,,,,,participant6,32,59.8712447577,F,trial,2017_May_26_1618,
,,0.49,"[-2.25, 0]",/sounds/legit/left35.wav,,,,,9,5,320,23,,,,,,,,,,,,,,,left,0.118347883224,,,,,participant6,32,59.8712447577,F,trial,2017_May_26_1618,
,,0.36,"[-6.75, 0]",/sounds/legit/left100.wav,,,,,9,6,321,32,,,,,,,,,,,,,,,left,0.151829957962,,,,,participant6,32,59.8712447577,F,trial,2017_May_26_1618,
,,0.36,"[-4.5, 0]",/sounds/legit/left70.wav,,,,,9,7,322,27,,,,,,,,,,,,,,,left,0.234793186188,,,,,participant6,32,59.8712447577,F,trial,2017_May_26_1618,
,,0.62,"[-2.25, 0]",/sounds/legit/left35.wav,,,,,9,8,323,24,,,,,,,,,,,,,,,left,0.134943008423,,,,,participant6,32,59.8712447577,F,trial,2017_May_26_1618,
,,0.36,"[0, 0]",/sounds/legit/equal.wav,,,,,9,9,324,2,,,,,,,,,,,,,,,right,0.937117815018,,,,,participant6,32,59.8712447577,F,trial,2017_May_26_1618,
,,0.62,"[-6.75, 0]",/sounds/legit/left100.wav,,,,,9,10,325,34,,,,,,,,,,,,,,,left,1.43766999245,,,,,participant6,32,59.8712447577,F,trial,2017_May_26_1618,
,,0.1,"[-6.75, 0]",/sounds/legit/left100.wav,,,,,9,11,326,30,,,,,,,,,,,,,,,left,0.435604810715,,,,,participant6,32,59.8712447577,F,trial,2017_May_26_1618,
,,0.62,"[2.25, 0]",/sounds/legit/right35.wav,,,,,9,12,327,9,,,,,,,,,,,,,,,right,0.168464899063,,,,,participant6,32,59.8712447577,F,trial,2017_May_26_1618,
,,0.36,"[4.5, 0]",/sounds/legit/right70.wav,,,,,9,13,328,12,,,,,,,,,,,,,,,right,1.97207212448,,,,,participant6,32,59.8712447577,F,trial,2017_May_26_1618,
,,0.36,"[2.25, 0]",/sounds/legit/right35.wav,,,,,9,14,329,7,,,,,,,,,,,,,,,right,0.185230970383,,,,,participant6,32,59.8712447577,F,trial,2017_May_26_1618,
,,0.49,"[-6.75, 0]",/sounds/legit/left100.wav,,,,,9,15,330,33,,,,,,,,,,,,,,,left,0.452399015427,,,,,participant6,32,59.8712447577,F,trial,2017_May_26_1618,
,,0.36,"[-2.25, 0]",/sounds/legit/left35.wav,,,,,9,16,331,22,,,,,,,,,,,,,,,left,0.352468013763,,,,,participant6,32,59.8712447577,F,trial,2017_May_26_1618,
,,0.49,"[2.25, 0]",/sounds/legit/right35.wav,,,,,9,17,332,8,,,,,,,,,,,,,,,right,0.168183088303,,,,,participant6,32,59.8712447577,F,trial,2017_May_26_1618,
,,0.23,"[-6.75, 0]",/sounds/legit/left100.wav,,,,,9,18,333,31,,,,,,,,,,,,,,,left,0.101399183273,,,,,participant6,32,59.8712447577,F,trial,2017_May_26_1618,
,,0.23,"[-4.5, 0]",/sounds/legit/left70.wav,,,,,9,19,334,26,,,,,,,,,,,,,,,left,0.167663097382,,,,,participant6,32,59.8712447577,F,trial,2017_May_26_1618,
,,0.1,"[6.75, 0]",/sounds/legit/right100.wav,,,,,9,20,335,15,,,,,,,,,,,,,,,right,1.18707895279,,,,,participant6,32,59.8712447577,F,trial,2017_May_26_1618,
,,0.1,"[0, 0]",/sounds/legit/equal.wav,,,,,9,21,336,0,,,,,,,,,,,,,,,left,0.30236697197,,,,,participant6,32,59.8712447577,F,trial,2017_May_26_1618,
,,0.62,"[4.5, 0]",/sounds/legit/right70.wav,,,,,9,22,337,14,,,,,,,,,,,,,,,right,0.218573093414,,,,,participant6,32,59.8712447577,F,trial,2017_May_26_1618,
,,0.62,"[0, 0]",/sounds/legit/equal.wav,,,,,9,23,338,4,,,,,,,,,,,,,,,left,0.503792047501,,,,,participant6,32,59.8712447577,F,trial,2017_May_26_1618,
,,0.62,"[-4.5, 0]",/sounds/legit/left70.wav,,,,,9,24,339,29,,,,,,,,,,,,,,,left,1.60498809814,,,,,participant6,32,59.8712447577,F,trial,2017_May_26_1618,
,,0.23,"[4.5, 0]",/sounds/legit/right70.wav,,,,,9,25,340,11,,,,,,,,,,,,,,,right,2.17234396935,,,,,participant6,32,59.8712447577,F,trial,2017_May_26_1618,
,,0.1,"[-4.5, 0]",/sounds/legit/left70.wav,,,,,9,26,341,25,,,,,,,,,,,,,,,left,0.0850200653076,,,,,participant6,32,59.8712447577,F,trial,2017_May_26_1618,
,,0.23,"[0, 0]",/sounds/legit/equal.wav,,,,,9,27,342,1,,,,,,,,,,,,,,,left,5.22933387756,,,,,participant6,32,59.8712447577,F,trial,2017_May_26_1618,
,,0.49,"[4.5, 0]",/sounds/legit/right70.wav,,,,,9,28,343,13,,,,,,,,,,,,,,,right,0.368769884109,,,,,participant6,32,59.8712447577,F,trial,2017_May_26_1618,
,,0.23,"[-2.25, 0]",/sounds/legit/left35.wav,,,,,9,29,344,21,,,,,,,,,,,,,,,left,0.117691993713,,,,,participant6,32,59.8712447577,F,trial,2017_May_26_1618,
,,0.23,"[6.75, 0]",/sounds/legit/right100.wav,,,,,9,30,345,16,,,,,,,,,,,,,,,right,0.0012891292572,,,,,participant6,32,59.8712447577,F,trial,2017_May_26_1618,
,,0.1,"[4.5, 0]",/sounds/legit/right70.wav,,,,,9,31,346,10,,,,,,,,,,,,,,,right,0.085000038147,,,,,participant6,32,59.8712447577,F,trial,2017_May_26_1618,
,,0.49,"[6.75, 0]",/sounds/legit/right100.wav,,,,,9,32,347,18,,,,,,,,,,,,,,,right,0.117149114609,,,,,participant6,32,59.8712447577,F,trial,2017_May_26_1618,
,,0.1,"[-2.25, 0]",/sounds/legit/left35.wav,,,,,9,33,348,20,,,,,,,,,,,,,,,left,0.0679488182068,,,,,participant6,32,59.8712447577,F,trial,2017_May_26_1618,
,,0.36,"[6.75, 0]",/sounds/legit/right100.wav,,,,,9,34,349,17,,,,,,,,,,,,,,,right,0.201630115509,,,,,participant6,32,59.8712447577,F,trial,2017_May_26_1618,
,,,,,,,,,,,,,,,,,,,,,,,,,,,,,space,19.5602180958,,,participant6,32,59.8712447577,F,trial,2017_May_26_1618,
,,0.62,"[0, 0]",/sounds/legit/equal.wav,,,,,,,,,0,0,0,4,,,,,,,,,,,,,,,right,1.1538631916,participant6,32,59.8712447577,F,trial,2017_May_26_1618,
,,0.36,"[0, 0]",/sounds/legit/equal.wav,,,,,,,,,0,1,1,2,,,,,,,,,,,,,,,right,1.32080817223,participant6,32,59.8712447577,F,trial,2017_May_26_1618,
,,0.62,"[-4.5, 0]",/sounds/legit/left70.wav,,,,,,,,,0,2,2,29,,,,,,,,,,,,,,,left,0.936367034912,participant6,32,59.8712447577,F,trial,2017_May_26_1618,
,,0.62,"[4.5, 0]",/sounds/legit/right70.wav,,,,,,,,,0,3,3,14,,,,,,,,,,,,,,,right,0.402194976807,participant6,32,59.8712447577,F,trial,2017_May_26_1618,
,,0.49,"[4.5, 0]",/sounds/legit/right70.wav,,,,,,,,,0,4,4,13,,,,,,,,,,,,,,,right,0.0679030418396,participant6,32,59.8712447577,F,trial,2017_May_26_1618,
,,0.49,"[2.25, 0]",/sounds/legit/right35.wav,,,,,,,,,0,5,5,8,,,,,,,,,,,,,,,right,0.301913976669,participant6,32,59.8712447577,F,trial,2017_May_26_1618,
,,0.49,"[2.25, 0]",/sounds/legit/right35.wav,,,,,,,,,0,6,6,8,,,,,,,,,,,,,,,right,0.235243082047,participant6,32,59.8712447577,F,trial,2017_May_26_1618,
,,0.1,"[4.5, 0]",/sounds/legit/right70.wav,,,,,,,,,0,7,7,10,,,,,,,,,,,,,,,right,0.0850949287415,participant6,32,59.8712447577,F,trial,2017_May_26_1618,
,,0.1,"[4.5, 0]",/sounds/legit/right70.wav,,,,,,,,,0,8,8,10,,,,,,,,,,,,,,,right,0.919919967651,participant6,32,59.8712447577,F,trial,2017_May_26_1618,
,,0.36,"[4.5, 0]",/sounds/legit/right70.wav,,,,,,,,,0,9,9,12,,,,,,,,,,,,,,,right,1.32116889954,participant6,32,59.8712447577,F,trial,2017_May_26_1618,
,,0.62,"[4.5, 0]",/sounds/legit/right70.wav,,,,,,,,,0,10,10,14,,,,,,,,,,,,,,,right,0.235137939453,participant6,32,59.8712447577,F,trial,2017_May_26_1618,
,,0.36,"[4.5, 0]",/sounds/legit/right70.wav,,,,,,,,,0,11,11,12,,,,,,,,,,,,,,,right,1.02066302299,participant6,32,59.8712447577,F,trial,2017_May_26_1618,
,,0.62,"[6.75, 0]",/sounds/legit/right100.wav,,,,,,,,,0,12,12,19,,,,,,,,,,,,,,,right,0.00135087966919,participant6,32,59.8712447577,F,trial,2017_May_26_1618,
,,0.23,"[-4.5, 0]",/sounds/legit/left70.wav,,,,,,,,,0,13,13,26,,,,,,,,,,,,,,,left,0.0681879520416,participant6,32,59.8712447577,F,trial,2017_May_26_1618,
,,0.49,"[4.5, 0]",/sounds/legit/right70.wav,,,,,,,,,0,14,14,13,,,,,,,,,,,,,,,right,0.101624965668,participant6,32,59.8712447577,F,trial,2017_May_26_1618,
,,0.23,"[6.75, 0]",/sounds/legit/right100.wav,,,,,,,,,0,15,15,16,,,,,,,,,,,,,,,right,0.168380022049,participant6,32,59.8712447577,F,trial,2017_May_26_1618,
,,0.1,"[4.5, 0]",/sounds/legit/right70.wav,,,,,,,,,0,16,16,10,,,,,,,,,,,,,,,right,0.302015066147,participant6,32,59.8712447577,F,trial,2017_May_26_1618,
,,0.1,"[0, 0]",/sounds/legit/equal.wav,,,,,,,,,0,17,17,0,,,,,,,,,,,,,,,right,0.836443901062,participant6,32,59.8712447577,F,trial,2017_May_26_1618,
,,0.1,"[4.5, 0]",/sounds/legit/right70.wav,,,,,,,,,0,18,18,10,,,,,,,,,,,,,,,right,0.25182390213,participant6,32,59.8712447577,F,trial,2017_May_26_1618,
,,0.1,"[2.25, 0]",/sounds/legit/right35.wav,,,,,,,,,0,19,19,5,,,,,,,,,,,,,,,right,0.268549919128,participant6,32,59.8712447577,F,trial,2017_May_26_1618,
,,0.1,"[4.5, 0]",/sounds/legit/right70.wav,,,,,,,,,0,20,20,10,,,,,,,,,,,,,,,right,0.0848100185394,participant6,32,59.8712447577,F,trial,2017_May_26_1618,
,,0.23,"[-2.25, 0]",/sounds/legit/left35.wav,,,,,,,,,0,21,21,21,,,,,,,,,,,,,,,left,0.335654020309,participant6,32,59.8712447577,F,trial,2017_May_26_1618,
,,0.23,"[0, 0]",/sounds/legit/equal.wav,,,,,,,,,0,22,22,1,,,,,,,,,,,,,,,right,0.335550069809,participant6,32,59.8712447577,F,trial,2017_May_26_1618,
,,0.1,"[6.75, 0]",/sounds/legit/right100.wav,,,,,,,,,0,23,23,15,,,,,,,,,,,,,,,right,0.218415021896,participant6,32,59.8712447577,F,trial,2017_May_26_1618,
,,0.62,"[2.25, 0]",/sounds/legit/right35.wav,,,,,,,,,0,24,24,9,,,,,,,,,,,,,,,right,0.352184057236,participant6,32,59.8712447577,F,trial,2017_May_26_1618,
,,0.62,"[-4.5, 0]",/sounds/legit/left70.wav,,,,,,,,,0,25,25,29,,,,,,,,,,,,,,,left,0.301809072495,participant6,32,59.8712447577,F,trial,2017_May_26_1618,
,,0.23,"[4.5, 0]",/sounds/legit/right70.wav,,,,,,,,,0,26,26,11,,,,,,,,,,,,,,,right,0.970062971115,participant6,32,59.8712447577,F,trial,2017_May_26_1618,
,,0.23,"[-2.25, 0]",/sounds/legit/left35.wav,,,,,,,,,0,27,27,21,,,,,,,,,,,,,,,left,0.2685110569,participant6,32,59.8712447577,F,trial,2017_May_26_1618,
,,0.62,"[4.5, 0]",/sounds/legit/right70.wav,,,,,,,,,0,28,28,14,,,,,,,,,,,,,,,right,0.13521695137,participant6,32,59.8712447577,F,trial,2017_May_26_1618,
,,0.1,"[2.25, 0]",/sounds/legit/right35.wav,,,,,,,,,0,29,29,5,,,,,,,,,,,,,,,right,0.134477138519,participant6,32,59.8712447577,F,trial,2017_May_26_1618,
,,0.1,"[6.75, 0]",/sounds/legit/right100.wav,,,,,,,,,0,30,30,15,,,,,,,,,,,,,,,right,0.0183038711548,participant6,32,59.8712447577,F,trial,2017_May_26_1618,
,,0.23,"[-4.5, 0]",/sounds/legit/left70.wav,,,,,,,,,0,31,31,26,,,,,,,,,,,,,,,left,0.117757797241,participant6,32,59.8712447577,F,trial,2017_May_26_1618,
,,0.62,"[-2.25, 0]",/sounds/legit/left35.wav,,,,,,,,,0,32,32,24,,,,,,,,,,,,,,,left,0.00125312805176,participant6,32,59.8712447577,F,trial,2017_May_26_1618,
,,0.62,"[-4.5, 0]",/sounds/legit/left70.wav,,,,,,,,,0,33,33,29,,,,,,,,,,,,,,,left,0.0849239826202,participant6,32,59.8712447577,F,trial,2017_May_26_1618,
,,0.1,"[0, 0]",/sounds/legit/equal.wav,,,,,,,,,0,34,34,0,,,,,,,,,,,,,,,right,0.285190820694,participant6,32,59.8712447577,F,trial,2017_May_26_1618,
,,0.23,"[-4.5, 0]",/sounds/legit/left70.wav,,,,,,,,,1,0,35,26,,,,,,,,,,,,,,,left,0.067929983139,participant6,32,59.8712447577,F,trial,2017_May_26_1618,
,,0.36,"[-2.25, 0]",/sounds/legit/left35.wav,,,,,,,,,1,1,36,22,,,,,,,,,,,,,,,left,0.151932954788,participant6,32,59.8712447577,F,trial,2017_May_26_1618,
,,0.23,"[0, 0]",/sounds/legit/equal.wav,,,,,,,,,1,2,37,1,,,,,,,,,,,,,,,right,0.369308948517,participant6,32,59.8712447577,F,trial,2017_May_26_1618,
,,0.1,"[6.75, 0]",/sounds/legit/right100.wav,,,,,,,,,1,3,38,15,,,,,,,,,,,,,,,right,0.134991168976,participant6,32,59.8712447577,F,trial,2017_May_26_1618,
,,0.49,"[0, 0]",/sounds/legit/equal.wav,,,,,,,,,1,4,39,3,,,,,,,,,,,,,,,right,0.235225915909,participant6,32,59.8712447577,F,trial,2017_May_26_1618,
,,0.36,"[2.25, 0]",/sounds/legit/right35.wav,,,,,,,,,1,5,40,7,,,,,,,,,,,,,,,right,0.936619997025,participant6,32,59.8712447577,F,trial,2017_May_26_1618,
,,0.36,"[-6.75, 0]",/sounds/legit/left100.wav,,,,,,,,,1,6,41,32,,,,,,,,,,,,,,,left,0.0847280025482,participant6,32,59.8712447577,F,trial,2017_May_26_1618,
,,0.62,"[2.25, 0]",/sounds/legit/right35.wav,,,,,,,,,1,7,42,9,,,,,,,,,,,,,,,right,0.385879039764,participant6,32,59.8712447577,F,trial,2017_May_26_1618,
,,0.36,"[0, 0]",/sounds/legit/equal.wav,,,,,,,,,1,8,43,2,,,,,,,,,,,,,,,right,0.418798923492,participant6,32,59.8712447577,F,trial,2017_May_26_1618,
,,0.23,"[4.5, 0]",/sounds/legit/right70.wav,,,,,,,,,1,9,44,11,,,,,,,,,,,,,,,right,0.18497300148,participant6,32,59.8712447577,F,trial,2017_May_26_1618,
,,0.1,"[0, 0]",/sounds/legit/equal.wav,,,,,,,,,1,10,45,0,,,,,,,,,,,,,,,right,0.151647090912,participant6,32,59.8712447577,F,trial,2017_May_26_1618,
,,0.23,"[2.25, 0]",/sounds/legit/right35.wav,,,,,,,,,1,11,46,6,,,,,,,,,,,,,,,right,0.00129699707031,participant6,32,59.8712447577,F,trial,2017_May_26_1618,
,,0.36,"[-2.25, 0]",/sounds/legit/left35.wav,,,,,,,,,1,12,47,22,,,,,,,,,,,,,,,left,0.253540039062,participant6,32,59.8712447577,F,trial,2017_May_26_1618,
,,0.1,"[-4.5, 0]",/sounds/legit/left70.wav,,,,,,,,,1,13,48,25,,,,,,,,,,,,,,,left,0.151803016663,participant6,32,59.8712447577,F,trial,2017_May_26_1618,
,,0.49,"[-4.5, 0]",/sounds/legit/left70.wav,,,,,,,,,1,14,49,28,,,,,,,,,,,,,,,left,0.736310005188,participant6,32,59.8712447577,F,trial,2017_May_26_1618,
,,0.62,"[-2.25, 0]",/sounds/legit/left35.wav,,,,,,,,,1,15,50,24,,,,,,,,,,,,,,,left,0.351925134659,participant6,32,59.8712447577,F,trial,2017_May_26_1618,
,,0.23,"[2.25, 0]",/sounds/legit/right35.wav,,,,,,,,,1,16,51,6,,,,,,,,,,,,,,,right,0.385509967804,participant6,32,59.8712447577,F,trial,2017_May_26_1618,
,,0.36,"[2.25, 0]",/sounds/legit/right35.wav,,,,,,,,,1,17,52,7,,,,,,,,,,,,,,,right,0.201518058777,participant6,32,59.8712447577,F,trial,2017_May_26_1618,
,,0.23,"[2.25, 0]",/sounds/legit/right35.wav,,,,,,,,,1,18,53,6,,,,,,,,,,,,,,,right,0.418886184692,participant6,32,59.8712447577,F,trial,2017_May_26_1618,
,,0.23,"[0, 0]",/sounds/legit/equal.wav,,,,,,,,,1,19,54,1,,,,,,,,,,,,,,,right,0.535854816437,participant6,32,59.8712447577,F,trial,2017_May_26_1618,
,,0.49,"[2.25, 0]",/sounds/legit/right35.wav,,,,,,,,,1,20,55,8,,,,,,,,,,,,,,,right,0.285500049591,participant6,32,59.8712447577,F,trial,2017_May_26_1618,
,,0.49,"[-4.5, 0]",/sounds/legit/left70.wav,,,,,,,,,1,21,56,28,,,,,,,,,,,,,,,left,0.250781059265,participant6,32,59.8712447577,F,trial,2017_May_26_1618,
,,0.62,"[2.25, 0]",/sounds/legit/right35.wav,,,,,,,,,1,22,57,9,,,,,,,,,,,,,,,right,0.335209131241,participant6,32,59.8712447577,F,trial,2017_May_26_1618,
,,0.36,"[2.25, 0]",/sounds/legit/right35.wav,,,,,,,,,1,23,58,7,,,,,,,,,,,,,,,right,0.151567935944,participant6,32,59.8712447577,F,trial,2017_May_26_1618,
,,0.49,"[-6.75, 0]",/sounds/legit/left100.wav,,,,,,,,,1,24,59,33,,,,,,,,,,,,,,,left,0.0679850578308,participant6,32,59.8712447577,F,trial,2017_May_26_1618,
,,0.49,"[-6.75, 0]",/sounds/legit/left100.wav,,,,,,,,,1,25,60,33,,,,,,,,,,,,,,,left,0.0512599945068,participant6,32,59.8712447577,F,trial,2017_May_26_1618,
,,0.36,"[-6.75, 0]",/sounds/legit/left100.wav,,,,,,,,,1,26,61,32,,,,,,,,,,,,,,,left,0.903043985367,participant6,32,59.8712447577,F,trial,2017_May_26_1618,
,,0.49,"[-6.75, 0]",/sounds/legit/left100.wav,,,,,,,,,1,27,62,33,,,,,,,,,,,,,,,left,0.485624074936,participant6,32,59.8712447577,F,trial,2017_May_26_1618,
,,0.1,"[6.75, 0]",/sounds/legit/right100.wav,,,,,,,,,1,28,63,15,,,,,,,,,,,,,,,right,0.418955087662,participant6,32,59.8712447577,F,trial,2017_May_26_1618,
,,0.23,"[-2.25, 0]",/sounds/legit/left35.wav,,,,,,,,,1,29,64,21,,,,,,,,,,,,,,,left,0.218602895737,participant6,32,59.8712447577,F,trial,2017_May_26_1618,
,,0.36,"[-4.5, 0]",/sounds/legit/left70.wav,,,,,,,,,1,30,65,27,,,,,,,,,,,,,,,left,0.235334157944,participant6,32,59.8712447577,F,trial,2017_May_26_1618,
,,0.49,"[-4.5, 0]",/sounds/legit/left70.wav,,,,,,,,,1,31,66,28,,,,,,,,,,,,,,,left,0.585797786713,participant6,32,59.8712447577,F,trial,2017_May_26_1618,
,,0.49,"[0, 0]",/sounds/legit/equal.wav,,,,,,,,,1,32,67,3,,,,,,,,,,,,,,,right,0.370138883591,participant6,32,59.8712447577,F,trial,2017_May_26_1618,
,,0.1,"[0, 0]",/sounds/legit/equal.wav,,,,,,,,,1,33,68,0,,,,,,,,,,,,,,,right,0.351197004318,participant6,32,59.8712447577,F,trial,2017_May_26_1618,
,,0.36,"[4.5, 0]",/sounds/legit/right70.wav,,,,,,,,,1,34,69,12,,,,,,,,,,,,,,,right,0.20140504837,participant6,32,59.8712447577,F,trial,2017_May_26_1618,
,,0.1,"[2.25, 0]",/sounds/legit/right35.wav,,,,,,,,,2,0,70,5,,,,,,,,,,,,,,,right,0.251795053482,participant6,32,59.8712447577,F,trial,2017_May_26_1618,
,,0.23,"[-4.5, 0]",/sounds/legit/left70.wav,,,,,,,,,2,1,71,26,,,,,,,,,,,,,,,left,0.335458993912,participant6,32,59.8712447577,F,trial,2017_May_26_1618,
,,0.1,"[-2.25, 0]",/sounds/legit/left35.wav,,,,,,,,,2,2,72,20,,,,,,,,,,,,,,,left,0.21825003624,participant6,32,59.8712447577,F,trial,2017_May_26_1618,
,,0.62,"[4.5, 0]",/sounds/legit/right70.wav,,,,,,,,,2,3,73,14,,,,,,,,,,,,,,,right,0.235219955444,participant6,32,59.8712447577,F,trial,2017_May_26_1618,
,,0.36,"[2.25, 0]",/sounds/legit/right35.wav,,,,,,,,,2,4,74,7,,,,,,,,,,,,,,,right,0.0514070987701,participant6,32,59.8712447577,F,trial,2017_May_26_1618,
,,0.49,"[-6.75, 0]",/sounds/legit/left100.wav,,,,,,,,,2,5,75,33,,,,,,,,,,,,,,,left,0.7361972332,participant6,32,59.8712447577,F,trial,2017_May_26_1618,
,,0.23,"[-4.5, 0]",/sounds/legit/left70.wav,,,,,,,,,2,6,76,26,,,,,,,,,,,,,,,left,0.201991796494,participant6,32,59.8712447577,F,trial,2017_May_26_1618,
,,0.23,"[4.5, 0]",/sounds/legit/right70.wav,,,,,,,,,2,7,77,11,,,,,,,,,,,,,,,right,0.702931165695,participant6,32,59.8712447577,F,trial,2017_May_26_1618,
,,0.62,"[4.5, 0]",/sounds/legit/right70.wav,,,,,,,,,2,8,78,14,,,,,,,,,,,,,,,right,0.268563985825,participant6,32,59.8712447577,F,trial,2017_May_26_1618,
,,0.36,"[-2.25, 0]",/sounds/legit/left35.wav,,,,,,,,,2,9,79,22,,,,,,,,,,,,,,,left,0.318437814713,participant6,32,59.8712447577,F,trial,2017_May_26_1618,
,,0.36,"[2.25, 0]",/sounds/legit/right35.wav,,,,,,,,,2,10,80,7,,,,,,,,,,,,,,,right,0.0348629951477,participant6,32,59.8712447577,F,trial,2017_May_26_1618,
,,0.1,"[-2.25, 0]",/sounds/legit/left35.wav,,,,,,,,,2,11,81,20,,,,,,,,,,,,,,,left,0.168291091919,participant6,32,59.8712447577,F,trial,2017_May_26_1618,
,,0.36,"[6.75, 0]",/sounds/legit/right100.wav,,,,,,,,,2,12,82,17,,,,,,,,,,,,,,,right,0.201666116714,participant6,32,59.8712447577,F,trial,2017_May_26_1618,
,,0.23,"[2.25, 0]",/sounds/legit/right35.wav,,,,,,,,,2,13,83,6,,,,,,,,,,,,,,,right,0.0349309444427,participant6,32,59.8712447577,F,trial,2017_May_26_1618,
,,0.49,"[2.25, 0]",/sounds/legit/right35.wav,,,,,,,,,2,14,84,8,,,,,,,,,,,,,,,right,0.0511350631714,participant6,32,59.8712447577,F,trial,2017_May_26_1618,
,,0.23,"[-2.25, 0]",/sounds/legit/left35.wav,,,,,,,,,2,15,85,21,,,,,,,,,,,,,,,left,0.201879024506,participant6,32,59.8712447577,F,trial,2017_May_26_1618,
,,0.49,"[0, 0]",/sounds/legit/equal.wav,,,,,,,,,2,16,86,3,,,,,,,,,,,,,,,right,0.552634000778,participant6,32,59.8712447577,F,trial,2017_May_26_1618,
,,0.23,"[-6.75, 0]",/sounds/legit/left100.wav,,,,,,,,,2,17,87,31,,,,,,,,,,,,,,,left,0.200874090195,participant6,32,59.8712447577,F,trial,2017_May_26_1618,
,,0.49,"[2.25, 0]",/sounds/legit/right35.wav,,,,,,,,,2,18,88,8,,,,,,,,,,,,,,,right,0.26861000061,participant6,32,59.8712447577,F,trial,2017_May_26_1618,
,,0.49,"[4.5, 0]",/sounds/legit/right70.wav,,,,,,,,,2,19,89,13,,,,,,,,,,,,,,,right,0.251804113388,participant6,32,59.8712447577,F,trial,2017_May_26_1618,
,,0.23,"[4.5, 0]",/sounds/legit/right70.wav,,,,,,,,,2,20,90,11,,,,,,,,,,,,,,,right,0.0849008560181,participant6,32,59.8712447577,F,trial,2017_May_26_1618,
,,0.36,"[6.75, 0]",/sounds/legit/right100.wav,,,,,,,,,2,21,91,17,,,,,,,,,,,,,,,right,0.351959943771,participant6,32,59.8712447577,F,trial,2017_May_26_1618,
,,0.1,"[-6.75, 0]",/sounds/legit/left100.wav,,,,,,,,,2,22,92,30,,,,,,,,,,,,,,,left,0.252002954483,participant6,32,59.8712447577,F,trial,2017_May_26_1618,
,,0.23,"[-4.5, 0]",/sounds/legit/left70.wav,,,,,,,,,2,23,93,26,,,,,,,,,,,,,,,left,0.218214035034,participant6,32,59.8712447577,F,trial,2017_May_26_1618,
,,0.36,"[-4.5, 0]",/sounds/legit/left70.wav,,,,,,,,,2,24,94,27,,,,,,,,,,,,,,,left,0.20184803009,participant6,32,59.8712447577,F,trial,2017_May_26_1618,
,,0.36,"[2.25, 0]",/sounds/legit/right35.wav,,,,,,,,,2,25,95,7,,,,,,,,,,,,,,,right,0.218741893768,participant6,32,59.8712447577,F,trial,2017_May_26_1618,
,,0.62,"[-2.25, 0]",/sounds/legit/left35.wav,,,,,,,,,2,26,96,24,,,,,,,,,,,,,,,right,1.63785600662,participant6,32,59.8712447577,F,trial,2017_May_26_1618,
,,0.23,"[6.75, 0]",/sounds/legit/right100.wav,,,,,,,,,2,27,97,16,,,,,,,,,,,,,,,right,0.251710891724,participant6,32,59.8712447577,F,trial,2017_May_26_1618,
,,0.23,"[6.75, 0]",/sounds/legit/right100.wav,,,,,,,,,2,28,98,16,,,,,,,,,,,,,,,right,0.252578020096,participant6,32,59.8712447577,F,trial,2017_May_26_1618,
,,0.1,"[4.5, 0]",/sounds/legit/right70.wav,,,,,,,,,2,29,99,10,,,,,,,,,,,,,,,right,0.118243932724,participant6,32,59.8712447577,F,trial,2017_May_26_1618,
,,0.49,"[6.75, 0]",/sounds/legit/right100.wav,,,,,,,,,2,30,100,18,,,,,,,,,,,,,,,right,0.469061851501,participant6,32,59.8712447577,F,trial,2017_May_26_1618,
,,0.62,"[-2.25, 0]",/sounds/legit/left35.wav,,,,,,,,,2,31,101,24,,,,,,,,,,,,,,,left,0.401325941086,participant6,32,59.8712447577,F,trial,2017_May_26_1618,
,,0.49,"[0, 0]",/sounds/legit/equal.wav,,,,,,,,,2,32,102,3,,,,,,,,,,,,,,,right,0.335761785507,participant6,32,59.8712447577,F,trial,2017_May_26_1618,
,,0.36,"[0, 0]",/sounds/legit/equal.wav,,,,,,,,,2,33,103,2,,,,,,,,,,,,,,,right,0.251857995987,participant6,32,59.8712447577,F,trial,2017_May_26_1618,
,,0.23,"[-4.5, 0]",/sounds/legit/left70.wav,,,,,,,,,2,34,104,26,,,,,,,,,,,,,,,left,0.185127973557,participant6,32,59.8712447577,F,trial,2017_May_26_1618,
,,0.62,"[-4.5, 0]",/sounds/legit/left70.wav,,,,,,,,,3,0,105,29,,,,,,,,,,,,,,,left,0.151582956314,participant6,32,59.8712447577,F,trial,2017_May_26_1618,
,,0.36,"[-4.5, 0]",/sounds/legit/left70.wav,,,,,,,,,3,1,106,27,,,,,,,,,,,,,,,left,0.101809978485,participant6,32,59.8712447577,F,trial,2017_May_26_1618,
,,0.49,"[6.75, 0]",/sounds/legit/right100.wav,,,,,,,,,3,2,107,18,,,,,,,,,,,,,,,right,0.0681428909302,participant6,32,59.8712447577,F,trial,2017_May_26_1618,
,,0.23,"[-2.25, 0]",/sounds/legit/left35.wav,,,,,,,,,3,3,108,21,,,,,,,,,,,,,,,left,0.101552009583,participant6,32,59.8712447577,F,trial,2017_May_26_1618,
,,0.62,"[0, 0]",/sounds/legit/equal.wav,,,,,,,,,3,4,109,4,,,,,,,,,,,,,,,right,0.201858997345,participant6,32,59.8712447577,F,trial,2017_May_26_1618,
,,0.49,"[-4.5, 0]",/sounds/legit/left70.wav,,,,,,,,,3,5,110,28,,,,,,,,,,,,,,,left,0.0182290077209,participant6,32,59.8712447577,F,trial,2017_May_26_1618,
,,0.49,"[2.25, 0]",/sounds/legit/right35.wav,,,,,,,,,3,6,111,8,,,,,,,,,,,,,,,right,0.0179710388184,participant6,32,59.8712447577,F,trial,2017_May_26_1618,
,,0.1,"[-6.75, 0]",/sounds/legit/left100.wav,,,,,,,,,3,7,112,30,,,,,,,,,,,,,,,left,0.101489067078,participant6,32,59.8712447577,F,trial,2017_May_26_1618,
,,0.62,"[0, 0]",/sounds/legit/equal.wav,,,,,,,,,3,8,113,4,,,,,,,,,,,,,,,right,0.101552963257,participant6,32,59.8712447577,F,trial,2017_May_26_1618,
,,0.23,"[-4.5, 0]",/sounds/legit/left70.wav,,,,,,,,,3,9,114,26,,,,,,,,,,,,,,,left,0.0851130485535,participant6,32,59.8712447577,F,trial,2017_May_26_1618,
,,0.1,"[-4.5, 0]",/sounds/legit/left70.wav,,,,,,,,,3,10,115,25,,,,,,,,,,,,,,,left,0.0343198776245,participant6,32,59.8712447577,F,trial,2017_May_26_1618,
,,0.62,"[-6.75, 0]",/sounds/legit/left100.wav,,,,,,,,,3,11,116,34,,,,,,,,,,,,,,,left,0.08487200737,participant6,32,59.8712447577,F,trial,2017_May_26_1618,
,,0.62,"[-4.5, 0]",/sounds/legit/left70.wav,,,,,,,,,3,12,117,29,,,,,,,,,,,,,,,left,0.184885978699,participant6,32,59.8712447577,F,trial,2017_May_26_1618,
,,0.23,"[6.75, 0]",/sounds/legit/right100.wav,,,,,,,,,3,13,118,16,,,,,,,,,,,,,,,right,0.0013439655304,participant6,32,59.8712447577,F,trial,2017_May_26_1618,
,,0.62,"[2.25, 0]",/sounds/legit/right35.wav,,,,,,,,,3,14,119,9,,,,,,,,,,,,,,,right,0.101890087128,participant6,32,59.8712447577,F,trial,2017_May_26_1618,
,,0.36,"[0, 0]",/sounds/legit/equal.wav,,,,,,,,,3,15,120,2,,,,,,,,,,,,,,,right,0.0679740905762,participant6,32,59.8712447577,F,trial,2017_May_26_1618,
,,0.49,"[0, 0]",/sounds/legit/equal.wav,,,,,,,,,3,16,121,3,,,,,,,,,,,,,,,right,0.0849249362946,participant6,32,59.8712447577,F,trial,2017_May_26_1618,
,,0.62,"[2.25, 0]",/sounds/legit/right35.wav,,,,,,,,,3,17,122,9,,,,,,,,,,,,,,,right,0.00139117240906,participant6,32,59.8712447577,F,trial,2017_May_26_1618,
,,0.1,"[-6.75, 0]",/sounds/legit/left100.wav,,,,,,,,,3,18,123,30,,,,,,,,,,,,,,,left,0.101324796677,participant6,32,59.8712447577,F,trial,2017_May_26_1618,
,,0.36,"[0, 0]",/sounds/legit/equal.wav,,,,,,,,,3,19,124,2,,,,,,,,,,,,,,,right,0.00126910209656,participant6,32,59.8712447577,F,trial,2017_May_26_1618,
,,0.36,"[6.75, 0]",/sounds/legit/right100.wav,,,,,,,,,3,20,125,17,,,,,,,,,,,,,,,right,0.485527992249,participant6,32,59.8712447577,F,trial,2017_May_26_1618,
,,0.49,"[-2.25, 0]",/sounds/legit/left35.wav,,,,,,,,,3,21,126,23,,,,,,,,,,,,,,,left,0.0846300125122,participant6,32,59.8712447577,F,trial,2017_May_26_1618,
,,0.36,"[0, 0]",/sounds/legit/equal.wav,,,,,,,,,3,22,127,2,,,,,,,,,,,,,,,right,0.285551071167,participant6,32,59.8712447577,F,trial,2017_May_26_1618,
,,0.62,"[6.75, 0]",/sounds/legit/right100.wav,,,,,,,,,3,23,128,19,,,,,,,,,,,,,,,right,0.135278224945,participant6,32,59.8712447577,F,trial,2017_May_26_1618,
,,0.49,"[0, 0]",/sounds/legit/equal.wav,,,,,,,,,3,24,129,3,,,,,,,,,,,,,,,right,0.301960945129,participant6,32,59.8712447577,F,trial,2017_May_26_1618,
,,0.49,"[-6.75, 0]",/sounds/legit/left100.wav,,,,,,,,,3,25,130,33,,,,,,,,,,,,,,,left,1.15384221077,participant6,32,59.8712447577,F,trial,2017_May_26_1618,
,,0.62,"[6.75, 0]",/sounds/legit/right100.wav,,,,,,,,,3,26,131,19,,,,,,,,,,,,,,,right,1.03700399399,participant6,32,59.8712447577,F,trial,2017_May_26_1618,
,,0.49,"[4.5, 0]",/sounds/legit/right70.wav,,,,,,,,,3,27,132,13,,,,,,,,,,,,,,,right,0.034688949585,participant6,32,59.8712447577,F,trial,2017_May_26_1618,
,,0.23,"[4.5, 0]",/sounds/legit/right70.wav,,,,,,,,,3,28,133,11,,,,,,,,,,,,,,,right,0.218940019608,participant6,32,59.8712447577,F,trial,2017_May_26_1618,
,,0.23,"[-6.75, 0]",/sounds/legit/left100.wav,,,,,,,,,3,29,134,31,,,,,,,,,,,,,,,left,0.084774017334,participant6,32,59.8712447577,F,trial,2017_May_26_1618,
,,0.36,"[-6.75, 0]",/sounds/legit/left100.wav,,,,,,,,,3,30,135,32,,,,,,,,,,,,,,,left,0.736276865005,participant6,32,59.8712447577,F,trial,2017_May_26_1618,
,,0.1,"[0, 0]",/sounds/legit/equal.wav,,,,,,,,,3,31,136,0,,,,,,,,,,,,,,,right,0.285315036774,participant6,32,59.8712447577,F,trial,2017_May_26_1618,
,,0.62,"[6.75, 0]",/sounds/legit/right100.wav,,,,,,,,,3,32,137,19,,,,,,,,,,,,,,,right,0.00125598907471,participant6,32,59.8712447577,F,trial,2017_May_26_1618,
,,0.62,"[6.75, 0]",/sounds/legit/right100.wav,,,,,,,,,3,33,138,19,,,,,,,,,,,,,,,right,0.00131106376648,participant6,32,59.8712447577,F,trial,2017_May_26_1618,
,,0.62,"[-6.75, 0]",/sounds/legit/left100.wav,,,,,,,,,3,34,139,34,,,,,,,,,,,,,,,left,0.101722002029,participant6,32,59.8712447577,F,trial,2017_May_26_1618,
,,0.1,"[-2.25, 0]",/sounds/legit/left35.wav,,,,,,,,,4,0,140,20,,,,,,,,,,,,,,,left,0.0181050300598,participant6,32,59.8712447577,F,trial,2017_May_26_1618,
,,0.49,"[0, 0]",/sounds/legit/equal.wav,,,,,,,,,4,1,141,3,,,,,,,,,,,,,,,right,0.185163021088,participant6,32,59.8712447577,F,trial,2017_May_26_1618,
,,0.62,"[-6.75, 0]",/sounds/legit/left100.wav,,,,,,,,,4,2,142,34,,,,,,,,,,,,,,,left,0.151794195175,participant6,32,59.8712447577,F,trial,2017_May_26_1618,
,,0.62,"[-6.75, 0]",/sounds/legit/left100.wav,,,,,,,,,4,3,143,34,,,,,,,,,,,,,,,left,0.051736831665,participant6,32,59.8712447577,F,trial,2017_May_26_1618,
,,0.1,"[-6.75, 0]",/sounds/legit/left100.wav,,,,,,,,,4,4,144,30,,,,,,,,,,,,,,,left,0.970047950745,participant6,32,59.8712447577,F,trial,2017_May_26_1618,
,,0.23,"[-2.25, 0]",/sounds/legit/left35.wav,,,,,,,,,4,5,145,21,,,,,,,,,,,,,,,left,0.736325025558,participant6,32,59.8712447577,F,trial,2017_May_26_1618,
,,0.23,"[2.25, 0]",/sounds/legit/right35.wav,,,,,,,,,4,6,146,6,,,,,,,,,,,,,,,right,0.736438035965,participant6,32,59.8712447577,F,trial,2017_May_26_1618,
,,0.49,"[-2.25, 0]",/sounds/legit/left35.wav,,,,,,,,,4,7,147,23,,,,,,,,,,,,,,,left,0.034500837326,participant6,32,59.8712447577,F,trial,2017_May_26_1618,
,,0.62,"[4.5, 0]",/sounds/legit/right70.wav,,,,,,,,,4,8,148,14,,,,,,,,,,,,,,,right,0.101544141769,participant6,32,59.8712447577,F,trial,2017_May_26_1618,
,,0.62,"[4.5, 0]",/sounds/legit/right70.wav,,,,,,,,,4,9,149,14,,,,,,,,,,,,,,,right,0.101580142975,participant6,32,59.8712447577,F,trial,2017_May_26_1618,
,,0.49,"[2.25, 0]",/sounds/legit/right35.wav,,,,,,,,,4,10,150,8,,,,,,,,,,,,,,,right,0.00127100944519,participant6,32,59.8712447577,F,trial,2017_May_26_1618,
,,0.1,"[0, 0]",/sounds/legit/equal.wav,,,,,,,,,4,11,151,0,,,,,,,,,,,,,,,right,0.28541302681,participant6,32,59.8712447577,F,trial,2017_May_26_1618,
,,0.49,"[0, 0]",/sounds/legit/equal.wav,,,,,,,,,4,12,152,3,,,,,,,,,,,,,,,right,0.00147199630737,participant6,32,59.8712447577,F,trial,2017_May_26_1618,
,,0.62,"[2.25, 0]",/sounds/legit/right35.wav,,,,,,,,,4,13,153,9,,,,,,,,,,,,,,,right,0.736376047134,participant6,32,59.8712447577,F,trial,2017_May_26_1618,
,,0.23,"[6.75, 0]",/sounds/legit/right100.wav,,,,,,,,,4,14,154,16,,,,,,,,,,,,,,,right,0.0850391387939,participant6,32,59.8712447577,F,trial,2017_May_26_1618,
,,0.49,"[-4.5, 0]",/sounds/legit/left70.wav,,,,,,,,,4,15,155,28,,,,,,,,,,,,,,,left,0.301935195923,participant6,32,59.8712447577,F,trial,2017_May_26_1618,
,,0.1,"[2.25, 0]",/sounds/legit/right35.wav,,,,,,,,,4,16,156,5,,,,,,,,,,,,,,,right,0.7030210495,participant6,32,59.8712447577,F,trial,2017_May_26_1618,
,,0.1,"[2.25, 0]",/sounds/legit/right35.wav,,,,,,,,,4,17,157,5,,,,,,,,,,,,,,,right,0.585935115814,participant6,32,59.8712447577,F,trial,2017_May_26_1618,
,,0.23,"[4.5, 0]",/sounds/legit/right70.wav,,,,,,,,,4,18,158,11,,,,,,,,,,,,,,,right,0.0349109172821,participant6,32,59.8712447577,F,trial,2017_May_26_1618,
,,0.23,"[0, 0]",/sounds/legit/equal.wav,,,,,,,,,4,19,159,1,,,,,,,,,,,,,,,right,0.101438045502,participant6,32,59.8712447577,F,trial,2017_May_26_1618,
,,0.23,"[-2.25, 0]",/sounds/legit/left35.wav,,,,,,,,,4,20,160,21,,,,,,,,,,,,,,,left,0.0680100917816,participant6,32,59.8712447577,F,trial,2017_May_26_1618,
,,0.62,"[0, 0]",/sounds/legit/equal.wav,,,,,,,,,4,21,161,4,,,,,,,,,,,,,,,right,0.435884952545,participant6,32,59.8712447577,F,trial,2017_May_26_1618,
,,0.62,"[6.75, 0]",/sounds/legit/right100.wav,,,,,,,,,4,22,162,19,,,,,,,,,,,,,,,right,0.00162410736084,participant6,32,59.8712447577,F,trial,2017_May_26_1618,
,,0.23,"[-6.75, 0]",/sounds/legit/left100.wav,,,,,,,,,4,23,163,31,,,,,,,,,,,,,,,left,0.00127005577087,participant6,32,59.8712447577,F,trial,2017_May_26_1618,
,,0.36,"[-2.25, 0]",/sounds/legit/left35.wav,,,,,,,,,4,24,164,22,,,,,,,,,,,,,,,left,0.0179159641266,participant6,32,59.8712447577,F,trial,2017_May_26_1618,
,,0.62,"[2.25, 0]",/sounds/legit/right35.wav,,,,,,,,,4,25,165,9,,,,,,,,,,,,,,,right,1.23726892471,participant6,32,59.8712447577,F,trial,2017_May_26_1618,
,,0.36,"[0, 0]",/sounds/legit/equal.wav,,,,,,,,,4,26,166,2,,,,,,,,,,,,,,,right,0.0514118671417,participant6,32,59.8712447577,F,trial,2017_May_26_1618,
,,0.62,"[-6.75, 0]",/sounds/legit/left100.wav,,,,,,,,,4,27,167,34,,,,,,,,,,,,,,,left,0.0513601303101,participant6,32,59.8712447577,F,trial,2017_May_26_1618,
,,0.49,"[6.75, 0]",/sounds/legit/right100.wav,,,,,,,,,4,28,168,18,,,,,,,,,,,,,,,right,0.0348460674286,participant6,32,59.8712447577,F,trial,2017_May_26_1618,
,,0.36,"[-6.75, 0]",/sounds/legit/left100.wav,,,,,,,,,4,29,169,32,,,,,,,,,,,,,,,left,0.0343689918518,participant6,32,59.8712447577,F,trial,2017_May_26_1618,
,,0.49,"[2.25, 0]",/sounds/legit/right35.wav,,,,,,,,,4,30,170,8,,,,,,,,,,,,,,,right,0.00123190879822,participant6,32,59.8712447577,F,trial,2017_May_26_1618,
,,0.1,"[-2.25, 0]",/sounds/legit/left35.wav,,,,,,,,,4,31,171,20,,,,,,,,,,,,,,,left,0.736138820648,participant6,32,59.8712447577,F,trial,2017_May_26_1618,
,,0.49,"[0, 0]",/sounds/legit/equal.wav,,,,,,,,,4,32,172,3,,,,,,,,,,,,,,,left,1.80539011955,participant6,32,59.8712447577,F,trial,2017_May_26_1618,
,,0.36,"[-4.5, 0]",/sounds/legit/left70.wav,,,,,,,,,4,33,173,27,,,,,,,,,,,,,,,left,0.218514919281,participant6,32,59.8712447577,F,trial,2017_May_26_1618,
,,0.62,"[-6.75, 0]",/sounds/legit/left100.wav,,,,,,,,,4,34,174,34,,,,,,,,,,,,,,,left,0.0680458545685,participant6,32,59.8712447577,F,trial,2017_May_26_1618,
,,0.1,"[6.75, 0]",/sounds/legit/right100.wav,,,,,,,,,5,0,175,15,,,,,,,,,,,,,,,right,0.619229078293,participant6,32,59.8712447577,F,trial,2017_May_26_1618,
,,0.62,"[-6.75, 0]",/sounds/legit/left100.wav,,,,,,,,,5,1,176,34,,,,,,,,,,,,,,,left,0.151511192322,participant6,32,59.8712447577,F,trial,2017_May_26_1618,
,,0.1,"[-4.5, 0]",/sounds/legit/left70.wav,,,,,,,,,5,2,177,25,,,,,,,,,,,,,,,left,0.00140500068665,participant6,32,59.8712447577,F,trial,2017_May_26_1618,
,,0.36,"[0, 0]",/sounds/legit/equal.wav,,,,,,,,,5,3,178,2,,,,,,,,,,,,,,,right,0.234983205795,participant6,32,59.8712447577,F,trial,2017_May_26_1618,
,,0.23,"[-6.75, 0]",/sounds/legit/left100.wav,,,,,,,,,5,4,179,31,,,,,,,,,,,,,,,left,0.719893932343,participant6,32,59.8712447577,F,trial,2017_May_26_1618,
,,0.36,"[-4.5, 0]",/sounds/legit/left70.wav,,,,,,,,,5,5,180,27,,,,,,,,,,,,,,,left,0.518826961517,participant6,32,59.8712447577,F,trial,2017_May_26_1618,
,,0.1,"[6.75, 0]",/sounds/legit/right100.wav,,,,,,,,,5,6,181,15,,,,,,,,,,,,,,,right,0.151671886444,participant6,32,59.8712447577,F,trial,2017_May_26_1618,
,,0.36,"[4.5, 0]",/sounds/legit/right70.wav,,,,,,,,,5,7,182,12,,,,,,,,,,,,,,,right,0.235274076462,participant6,32,59.8712447577,F,trial,2017_May_26_1618,
,,0.23,"[6.75, 0]",/sounds/legit/right100.wav,,,,,,,,,5,8,183,16,,,,,,,,,,,,,,,right,0.252075195312,participant6,32,59.8712447577,F,trial,2017_May_26_1618,
,,0.36,"[2.25, 0]",/sounds/legit/right35.wav,,,,,,,,,5,9,184,7,,,,,,,,,,,,,,,right,0.118348836899,participant6,32,59.8712447577,F,trial,2017_May_26_1618,
,,0.49,"[-2.25, 0]",/sounds/legit/left35.wav,,,,,,,,,5,10,185,23,,,,,,,,,,,,,,,left,0.134971857071,participant6,32,59.8712447577,F,trial,2017_May_26_1618,
,,0.36,"[-6.75, 0]",/sounds/legit/left100.wav,,,,,,,,,5,11,186,32,,,,,,,,,,,,,,,left,0.635955810547,participant6,32,59.8712447577,F,trial,2017_May_26_1618,
,,0.1,"[2.25, 0]",/sounds/legit/right35.wav,,,,,,,,,5,12,187,5,,,,,,,,,,,,,,,right,0.284333944321,participant6,32,59.8712447577,F,trial,2017_May_26_1618,
,,0.62,"[-6.75, 0]",/sounds/legit/left100.wav,,,,,,,,,5,13,188,34,,,,,,,,,,,,,,,left,0.134787082672,participant6,32,59.8712447577,F,trial,2017_May_26_1618,
,,0.36,"[-4.5, 0]",/sounds/legit/left70.wav,,,,,,,,,5,14,189,27,,,,,,,,,,,,,,,left,0.0182299613953,participant6,32,59.8712447577,F,trial,2017_May_26_1618,
,,0.62,"[0, 0]",/sounds/legit/equal.wav,,,,,,,,,5,15,190,4,,,,,,,,,,,,,,,right,0.28565621376,participant6,32,59.8712447577,F,trial,2017_May_26_1618,
,,0.36,"[-2.25, 0]",/sounds/legit/left35.wav,,,,,,,,,5,16,191,22,,,,,,,,,,,,,,,left,0.0682330131531,participant6,32,59.8712447577,F,trial,2017_May_26_1618,
,,0.1,"[-6.75, 0]",/sounds/legit/left100.wav,,,,,,,,,5,17,192,30,,,,,,,,,,,,,,,left,0.11844587326,participant6,32,59.8712447577,F,trial,2017_May_26_1618,
,,0.49,"[0, 0]",/sounds/legit/equal.wav,,,,,,,,,5,18,193,3,,,,,,,,,,,,,,,right,0.502200841904,participant6,32,59.8712447577,F,trial,2017_May_26_1618,
,,0.1,"[-4.5, 0]",/sounds/legit/left70.wav,,,,,,,,,5,19,194,25,,,,,,,,,,,,,,,left,0.151535987854,participant6,32,59.8712447577,F,trial,2017_May_26_1618,
,,0.49,"[-4.5, 0]",/sounds/legit/left70.wav,,,,,,,,,5,20,195,28,,,,,,,,,,,,,,,left,0.201622009277,participant6,32,59.8712447577,F,trial,2017_May_26_1618,
,,0.49,"[6.75, 0]",/sounds/legit/right100.wav,,,,,,,,,5,21,196,18,,,,,,,,,,,,,,,right,0.218644142151,participant6,32,59.8712447577,F,trial,2017_May_26_1618,
,,0.23,"[-2.25, 0]",/sounds/legit/left35.wav,,,,,,,,,5,22,197,21,,,,,,,,,,,,,,,left,0.100563049316,participant6,32,59.8712447577,F,trial,2017_May_26_1618,
,,0.62,"[0, 0]",/sounds/legit/equal.wav,,,,,,,,,5,23,198,4,,,,,,,,,,,,,,,left,1.28714299202,participant6,32,59.8712447577,F,trial,2017_May_26_1618,
,,0.23,"[2.25, 0]",/sounds/legit/right35.wav,,,,,,,,,5,24,199,6,,,,,,,,,,,,,,,right,0.16832613945,participant6,32,59.8712447577,F,trial,2017_May_26_1618,
,,0.62,"[-2.25, 0]",/sounds/legit/left35.wav,,,,,,,,,5,25,200,24,,,,,,,,,,,,,,,left,0.0681290626526,participant6,32,59.8712447577,F,trial,2017_May_26_1618,
,,0.62,"[2.25, 0]",/sounds/legit/right35.wav,,,,,,,,,5,26,201,9,,,,,,,,,,,,,,,right,0.235109090805,participant6,32,59.8712447577,F,trial,2017_May_26_1618,
,,0.62,"[-2.25, 0]",/sounds/legit/left35.wav,,,,,,,,,5,27,202,24,,,,,,,,,,,,,,,left,0.385499000549,participant6,32,59.8712447577,F,trial,2017_May_26_1618,
,,0.62,"[-4.5, 0]",/sounds/legit/left70.wav,,,,,,,,,5,28,203,29,,,,,,,,,,,,,,,left,0.235154151917,participant6,32,59.8712447577,F,trial,2017_May_26_1618,
,,0.49,"[-2.25, 0]",/sounds/legit/left35.wav,,,,,,,,,5,29,204,23,,,,,,,,,,,,,,,left,0.151690006256,participant6,32,59.8712447577,F,trial,2017_May_26_1618,
,,0.49,"[-2.25, 0]",/sounds/legit/left35.wav,,,,,,,,,5,30,205,23,,,,,,,,,,,,,,,left,0.135271072388,participant6,32,59.8712447577,F,trial,2017_May_26_1618,
,,0.23,"[-6.75, 0]",/sounds/legit/left100.wav,,,,,,,,,5,31,206,31,,,,,,,,,,,,,,,left,0.101683139801,participant6,32,59.8712447577,F,trial,2017_May_26_1618,
,,0.36,"[6.75, 0]",/sounds/legit/right100.wav,,,,,,,,,5,32,207,17,,,,,,,,,,,,,,,right,0.235119104385,participant6,32,59.8712447577,F,trial,2017_May_26_1618,
,,0.36,"[6.75, 0]",/sounds/legit/right100.wav,,,,,,,,,5,33,208,17,,,,,,,,,,,,,,,right,0.134927988052,participant6,32,59.8712447577,F,trial,2017_May_26_1618,
,,0.1,"[0, 0]",/sounds/legit/equal.wav,,,,,,,,,5,34,209,0,,,,,,,,,,,,,,,right,0.385223150253,participant6,32,59.8712447577,F,trial,2017_May_26_1618,
,,0.62,"[-6.75, 0]",/sounds/legit/left100.wav,,,,,,,,,6,0,210,34,,,,,,,,,,,,,,,left,0.218439817429,participant6,32,59.8712447577,F,trial,2017_May_26_1618,
,,0.1,"[2.25, 0]",/sounds/legit/right35.wav,,,,,,,,,6,1,211,5,,,,,,,,,,,,,,,right,0.0181338787079,participant6,32,59.8712447577,F,trial,2017_May_26_1618,
,,0.23,"[0, 0]",/sounds/legit/equal.wav,,,,,,,,,6,2,212,1,,,,,,,,,,,,,,,right,0.218408107758,participant6,32,59.8712447577,F,trial,2017_May_26_1618,
,,0.49,"[-2.25, 0]",/sounds/legit/left35.wav,,,,,,,,,6,3,213,23,,,,,,,,,,,,,,,left,0.0177500247955,participant6,32,59.8712447577,F,trial,2017_May_26_1618,
,,0.49,"[4.5, 0]",/sounds/legit/right70.wav,,,,,,,,,6,4,214,13,,,,,,,,,,,,,,,right,0.535764932632,participant6,32,59.8712447577,F,trial,2017_May_26_1618,
,,0.23,"[4.5, 0]",/sounds/legit/right70.wav,,,,,,,,,6,5,215,11,,,,,,,,,,,,,,,right,0.668170928955,participant6,32,59.8712447577,F,trial,2017_May_26_1618,
,,0.23,"[2.25, 0]",/sounds/legit/right35.wav,,,,,,,,,6,6,216,6,,,,,,,,,,,,,,,right,0.118324041367,participant6,32,59.8712447577,F,trial,2017_May_26_1618,
,,0.1,"[-2.25, 0]",/sounds/legit/left35.wav,,,,,,,,,6,7,217,20,,,,,,,,,,,,,,,left,0.0514991283417,participant6,32,59.8712447577,F,trial,2017_May_26_1618,
,,0.23,"[6.75, 0]",/sounds/legit/right100.wav,,,,,,,,,6,8,218,16,,,,,,,,,,,,,,,right,0.168226957321,participant6,32,59.8712447577,F,trial,2017_May_26_1618,
,,0.49,"[6.75, 0]",/sounds/legit/right100.wav,,,,,,,,,6,9,219,18,,,,,,,,,,,,,,,right,0.0182139873505,participant6,32,59.8712447577,F,trial,2017_May_26_1618,
,,0.62,"[0, 0]",/sounds/legit/equal.wav,,,,,,,,,6,10,220,4,,,,,,,,,,,,,,,right,0.836558103561,participant6,32,59.8712447577,F,trial,2017_May_26_1618,
,,0.49,"[-4.5, 0]",/sounds/legit/left70.wav,,,,,,,,,6,11,221,28,,,,,,,,,,,,,,,left,0.0682089328766,participant6,32,59.8712447577,F,trial,2017_May_26_1618,
,,0.36,"[2.25, 0]",/sounds/legit/right35.wav,,,,,,,,,6,12,222,7,,,,,,,,,,,,,,,right,0.185477972031,participant6,32,59.8712447577,F,trial,2017_May_26_1618,
,,0.49,"[-6.75, 0]",/sounds/legit/left100.wav,,,,,,,,,6,13,223,33,,,,,,,,,,,,,,,left,0.0846328735352,participant6,32,59.8712447577,F,trial,2017_May_26_1618,
,,0.23,"[-6.75, 0]",/sounds/legit/left100.wav,,,,,,,,,6,14,224,31,,,,,,,,,,,,,,,left,0.81996178627,participant6,32,59.8712447577,F,trial,2017_May_26_1618,
,,0.1,"[4.5, 0]",/sounds/legit/right70.wav,,,,,,,,,6,15,225,10,,,,,,,,,,,,,,,right,0.118180036545,participant6,32,59.8712447577,F,trial,2017_May_26_1618,
,,0.49,"[2.25, 0]",/sounds/legit/right35.wav,,,,,,,,,6,16,226,8,,,,,,,,,,,,,,,right,0.619355916977,participant6,32,59.8712447577,F,trial,2017_May_26_1618,
,,0.49,"[4.5, 0]",/sounds/legit/right70.wav,,,,,,,,,6,17,227,13,,,,,,,,,,,,,,,right,0.101689100266,participant6,32,59.8712447577,F,trial,2017_May_26_1618,
