path,name,noise,location,correspondingAudio,audiotrials.thisRepN,audiotrials.thisTrialN,audiotrials.thisN,audiotrials.thisIndex,visualTrials.thisRepN,visualTrials.thisTrialN,visualTrials.thisN,visualTrials.thisIndex,combinedTrials.thisRepN,combinedTrials.thisTrialN,combinedTrials.thisN,combinedTrials.thisIndex,WelcomeKey.keys,WelcomeKey.rt,key_resp_2.keys,key_resp_2.rt,AudioInstrAccept.keys,AudioInstrAccept.rt,LeftorRight.keys,LeftorRight.rt,VisualBlock.keys,VisualBlock.rt,VisualDecision.keys,VisualDecision.rt,CombinedAccept.keys,CombinedAccept.rt,CombComparisonResponse.keys,CombComparisonResponse.rt,participant,age,frameRate,sex,expName,date,
,,,,,,,,,,,,,,,,,space,0.973088979721,,,,,,,,,,,,,,,participant15,28,59.972861173,M,trial,2017_May_29_1231,
,,,,,,,,,,,,,,,,,,,space,1.13792204857,,,,,,,,,,,,,participant15,28,59.972861173,M,trial,2017_May_29_1231,
,,,,,,,,,,,,,,,,,,,,,space,0.152147054672,,,,,,,,,,,participant15,28,59.972861173,M,trial,2017_May_29_1231,
/sounds/legit/right100.wav,right100,,,,0,0,0,5,,,,,,,,,,,,,,,right,0.285692930222,,,,,,,,,participant15,28,59.972861173,M,trial,2017_May_29_1231,
/sounds/legit/left35.wav,left30,,,,0,1,1,2,,,,,,,,,,,,,,,left,0.268755197525,,,,,,,,,participant15,28,59.972861173,M,trial,2017_May_29_1231,
/sounds/legit/left70.wav,left60,,,,0,2,2,1,,,,,,,,,,,,,,,left,0.235095977783,,,,,,,,,participant15,28,59.972861173,M,trial,2017_May_29_1231,
/sounds/legit/equal.wav,equal,,,,0,3,3,6,,,,,,,,,,,,,,,left,0.335459947586,,,,,,,,,participant15,28,59.972861173,M,trial,2017_May_29_1231,
/sounds/legit/right70.wav,right60,,,,0,4,4,4,,,,,,,,,,,,,,,right,0.0848259925842,,,,,,,,,participant15,28,59.972861173,M,trial,2017_May_29_1231,
/sounds/legit/left100.wav,left100,,,,0,5,5,0,,,,,,,,,,,,,,,left,0.0848808288574,,,,,,,,,participant15,28,59.972861173,M,trial,2017_May_29_1231,
/sounds/legit/right35.wav,right30,,,,0,6,6,3,,,,,,,,,,,,,,,right,0.7528860569,,,,,,,,,participant15,28,59.972861173,M,trial,2017_May_29_1231,
/sounds/legit/left100.wav,left100,,,,1,0,7,0,,,,,,,,,,,,,,,left,0.285323858261,,,,,,,,,participant15,28,59.972861173,M,trial,2017_May_29_1231,
/sounds/legit/right70.wav,right60,,,,1,1,8,4,,,,,,,,,,,,,,,right,0.251950025558,,,,,,,,,participant15,28,59.972861173,M,trial,2017_May_29_1231,
/sounds/legit/left35.wav,left30,,,,1,2,9,2,,,,,,,,,,,,,,,left,0.218566179276,,,,,,,,,participant15,28,59.972861173,M,trial,2017_May_29_1231,
/sounds/legit/equal.wav,equal,,,,1,3,10,6,,,,,,,,,,,,,,,right,0.352113008499,,,,,,,,,participant15,28,59.972861173,M,trial,2017_May_29_1231,
/sounds/legit/left70.wav,left60,,,,1,4,11,1,,,,,,,,,,,,,,,left,0.251974105835,,,,,,,,,participant15,28,59.972861173,M,trial,2017_May_29_1231,
/sounds/legit/right100.wav,right100,,,,1,5,12,5,,,,,,,,,,,,,,,right,0.185091018677,,,,,,,,,participant15,28,59.972861173,M,trial,2017_May_29_1231,
/sounds/legit/right35.wav,right30,,,,1,6,13,3,,,,,,,,,,,,,,,right,0.201770067215,,,,,,,,,participant15,28,59.972861173,M,trial,2017_May_29_1231,
/sounds/legit/right100.wav,right100,,,,2,0,14,5,,,,,,,,,,,,,,,right,0.686359167099,,,,,,,,,participant15,28,59.972861173,M,trial,2017_May_29_1231,
/sounds/legit/equal.wav,equal,,,,2,1,15,6,,,,,,,,,,,,,,,left,0.352015972137,,,,,,,,,participant15,28,59.972861173,M,trial,2017_May_29_1231,
/sounds/legit/left100.wav,left100,,,,2,2,16,0,,,,,,,,,,,,,,,left,0.201929092407,,,,,,,,,participant15,28,59.972861173,M,trial,2017_May_29_1231,
/sounds/legit/right35.wav,right30,,,,2,3,17,3,,,,,,,,,,,,,,,right,0.186047077179,,,,,,,,,participant15,28,59.972861173,M,trial,2017_May_29_1231,
/sounds/legit/right70.wav,right60,,,,2,4,18,4,,,,,,,,,,,,,,,right,0.0847179889679,,,,,,,,,participant15,28,59.972861173,M,trial,2017_May_29_1231,
/sounds/legit/left70.wav,left60,,,,2,5,19,1,,,,,,,,,,,,,,,left,0.16832280159,,,,,,,,,participant15,28,59.972861173,M,trial,2017_May_29_1231,
/sounds/legit/left35.wav,left30,,,,2,6,20,2,,,,,,,,,,,,,,,left,0.201952934265,,,,,,,,,participant15,28,59.972861173,M,trial,2017_May_29_1231,
/sounds/legit/right70.wav,right60,,,,3,0,21,4,,,,,,,,,,,,,,,right,0.118056058884,,,,,,,,,participant15,28,59.972861173,M,trial,2017_May_29_1231,
/sounds/legit/left35.wav,left30,,,,3,1,22,2,,,,,,,,,,,,,,,left,0.201750040054,,,,,,,,,participant15,28,59.972861173,M,trial,2017_May_29_1231,
/sounds/legit/left70.wav,left60,,,,3,2,23,1,,,,,,,,,,,,,,,left,0.218511819839,,,,,,,,,participant15,28,59.972861173,M,trial,2017_May_29_1231,
/sounds/legit/left100.wav,left100,,,,3,3,24,0,,,,,,,,,,,,,,,left,0.083781003952,,,,,,,,,participant15,28,59.972861173,M,trial,2017_May_29_1231,
/sounds/legit/right35.wav,right30,,,,3,4,25,3,,,,,,,,,,,,,,,right,0.185055971146,,,,,,,,,participant15,28,59.972861173,M,trial,2017_May_29_1231,
/sounds/legit/equal.wav,equal,,,,3,5,26,6,,,,,,,,,,,,,,,right,0.251814126968,,,,,,,,,participant15,28,59.972861173,M,trial,2017_May_29_1231,
/sounds/legit/right100.wav,right100,,,,3,6,27,5,,,,,,,,,,,,,,,right,0.151771783829,,,,,,,,,participant15,28,59.972861173,M,trial,2017_May_29_1231,
/sounds/legit/left35.wav,left30,,,,4,0,28,2,,,,,,,,,,,,,,,left,0.235013008118,,,,,,,,,participant15,28,59.972861173,M,trial,2017_May_29_1231,
/sounds/legit/equal.wav,equal,,,,4,1,29,6,,,,,,,,,,,,,,,left,0.185208797455,,,,,,,,,participant15,28,59.972861173,M,trial,2017_May_29_1231,
/sounds/legit/left100.wav,left100,,,,4,2,30,0,,,,,,,,,,,,,,,left,0.151603937149,,,,,,,,,participant15,28,59.972861173,M,trial,2017_May_29_1231,
/sounds/legit/right100.wav,right100,,,,4,3,31,5,,,,,,,,,,,,,,,right,0.0680239200592,,,,,,,,,participant15,28,59.972861173,M,trial,2017_May_29_1231,
/sounds/legit/right70.wav,right60,,,,4,4,32,4,,,,,,,,,,,,,,,right,0.13477396965,,,,,,,,,participant15,28,59.972861173,M,trial,2017_May_29_1231,
/sounds/legit/right35.wav,right30,,,,4,5,33,3,,,,,,,,,,,,,,,right,0.151741981506,,,,,,,,,participant15,28,59.972861173,M,trial,2017_May_29_1231,
/sounds/legit/left70.wav,left60,,,,4,6,34,1,,,,,,,,,,,,,,,left,0.235279083252,,,,,,,,,participant15,28,59.972861173,M,trial,2017_May_29_1231,
/sounds/legit/left100.wav,left100,,,,5,0,35,0,,,,,,,,,,,,,,,left,0.101418972015,,,,,,,,,participant15,28,59.972861173,M,trial,2017_May_29_1231,
/sounds/legit/equal.wav,equal,,,,5,1,36,6,,,,,,,,,,,,,,,right,0.10182595253,,,,,,,,,participant15,28,59.972861173,M,trial,2017_May_29_1231,
/sounds/legit/right100.wav,right100,,,,5,2,37,5,,,,,,,,,,,,,,,right,0.0348989963531,,,,,,,,,participant15,28,59.972861173,M,trial,2017_May_29_1231,
/sounds/legit/left35.wav,left30,,,,5,3,38,2,,,,,,,,,,,,,,,left,0.101406097412,,,,,,,,,participant15,28,59.972861173,M,trial,2017_May_29_1231,
/sounds/legit/right35.wav,right30,,,,5,4,39,3,,,,,,,,,,,,,,,right,0.118368864059,,,,,,,,,participant15,28,59.972861173,M,trial,2017_May_29_1231,
/sounds/legit/right70.wav,right60,,,,5,5,40,4,,,,,,,,,,,,,,,right,0.0346210002899,,,,,,,,,participant15,28,59.972861173,M,trial,2017_May_29_1231,
/sounds/legit/left70.wav,left60,,,,5,6,41,1,,,,,,,,,,,,,,,left,0.0680501461029,,,,,,,,,participant15,28,59.972861173,M,trial,2017_May_29_1231,
/sounds/legit/right100.wav,right100,,,,6,0,42,5,,,,,,,,,,,,,,,right,0.0847790241241,,,,,,,,,participant15,28,59.972861173,M,trial,2017_May_29_1231,
/sounds/legit/left100.wav,left100,,,,6,1,43,0,,,,,,,,,,,,,,,left,0.017951965332,,,,,,,,,participant15,28,59.972861173,M,trial,2017_May_29_1231,
/sounds/legit/equal.wav,equal,,,,6,2,44,6,,,,,,,,,,,,,,,right,0.0513989925385,,,,,,,,,participant15,28,59.972861173,M,trial,2017_May_29_1231,
/sounds/legit/left35.wav,left30,,,,6,3,45,2,,,,,,,,,,,,,,,left,0.0682878494263,,,,,,,,,participant15,28,59.972861173,M,trial,2017_May_29_1231,
/sounds/legit/right35.wav,right30,,,,6,4,46,3,,,,,,,,,,,,,,,right,0.135140180588,,,,,,,,,participant15,28,59.972861173,M,trial,2017_May_29_1231,
/sounds/legit/left70.wav,left60,,,,6,5,47,1,,,,,,,,,,,,,,,left,0.10134601593,,,,,,,,,participant15,28,59.972861173,M,trial,2017_May_29_1231,
/sounds/legit/right70.wav,right60,,,,6,6,48,4,,,,,,,,,,,,,,,right,0.0682079792023,,,,,,,,,participant15,28,59.972861173,M,trial,2017_May_29_1231,
/sounds/legit/right35.wav,right30,,,,7,0,49,3,,,,,,,,,,,,,,,left,0.151340961456,,,,,,,,,participant15,28,59.972861173,M,trial,2017_May_29_1231,
/sounds/legit/left35.wav,left30,,,,7,1,50,2,,,,,,,,,,,,,,,left,0.134963989258,,,,,,,,,participant15,28,59.972861173,M,trial,2017_May_29_1231,
/sounds/legit/right100.wav,right100,,,,7,2,51,5,,,,,,,,,,,,,,,left,0.819834947586,,,,,,,,,participant15,28,59.972861173,M,trial,2017_May_29_1231,
/sounds/legit/left100.wav,left100,,,,7,3,52,0,,,,,,,,,,,,,,,left,0.151634931564,,,,,,,,,participant15,28,59.972861173,M,trial,2017_May_29_1231,
/sounds/legit/left70.wav,left60,,,,7,4,53,1,,,,,,,,,,,,,,,left,0.251708984375,,,,,,,,,participant15,28,59.972861173,M,trial,2017_May_29_1231,
/sounds/legit/equal.wav,equal,,,,7,5,54,6,,,,,,,,,,,,,,,left,0.753039836884,,,,,,,,,participant15,28,59.972861173,M,trial,2017_May_29_1231,
/sounds/legit/right70.wav,right60,,,,7,6,55,4,,,,,,,,,,,,,,,right,0.251178979874,,,,,,,,,participant15,28,59.972861173,M,trial,2017_May_29_1231,
/sounds/legit/left35.wav,left30,,,,8,0,56,2,,,,,,,,,,,,,,,left,0.217957019806,,,,,,,,,participant15,28,59.972861173,M,trial,2017_May_29_1231,
/sounds/legit/right35.wav,right30,,,,8,1,57,3,,,,,,,,,,,,,,,right,0.0682599544525,,,,,,,,,participant15,28,59.972861173,M,trial,2017_May_29_1231,
/sounds/legit/right70.wav,right60,,,,8,2,58,4,,,,,,,,,,,,,,,right,0.569046974182,,,,,,,,,participant15,28,59.972861173,M,trial,2017_May_29_1231,
/sounds/legit/left100.wav,left100,,,,8,3,59,0,,,,,,,,,,,,,,,right,0.151705980301,,,,,,,,,participant15,28,59.972861173,M,trial,2017_May_29_1231,
/sounds/legit/equal.wav,equal,,,,8,4,60,6,,,,,,,,,,,,,,,right,0.285346984863,,,,,,,,,participant15,28,59.972861173,M,trial,2017_May_29_1231,
/sounds/legit/left70.wav,left60,,,,8,5,61,1,,,,,,,,,,,,,,,left,0.201957941055,,,,,,,,,participant15,28,59.972861173,M,trial,2017_May_29_1231,
/sounds/legit/right100.wav,right100,,,,8,6,62,5,,,,,,,,,,,,,,,right,0.0671951770782,,,,,,,,,participant15,28,59.972861173,M,trial,2017_May_29_1231,
/sounds/legit/right70.wav,right60,,,,9,0,63,4,,,,,,,,,,,,,,,right,0.185137987137,,,,,,,,,participant15,28,59.972861173,M,trial,2017_May_29_1231,
/sounds/legit/right100.wav,right100,,,,9,1,64,5,,,,,,,,,,,,,,,right,0.0683290958405,,,,,,,,,participant15,28,59.972861173,M,trial,2017_May_29_1231,
/sounds/legit/left70.wav,left60,,,,9,2,65,1,,,,,,,,,,,,,,,left,0.218877077103,,,,,,,,,participant15,28,59.972861173,M,trial,2017_May_29_1231,
/sounds/legit/left35.wav,left30,,,,9,3,66,2,,,,,,,,,,,,,,,left,0.235231876373,,,,,,,,,participant15,28,59.972861173,M,trial,2017_May_29_1231,
/sounds/legit/left100.wav,left100,,,,9,4,67,0,,,,,,,,,,,,,,,left,0.118227958679,,,,,,,,,participant15,28,59.972861173,M,trial,2017_May_29_1231,
/sounds/legit/equal.wav,equal,,,,9,5,68,6,,,,,,,,,,,,,,,left,0.35197687149,,,,,,,,,participant15,28,59.972861173,M,trial,2017_May_29_1231,
/sounds/legit/right35.wav,right30,,,,9,6,69,3,,,,,,,,,,,,,,,right,0.18528008461,,,,,,,,,participant15,28,59.972861173,M,trial,2017_May_29_1231,
,,,,,,,,,,,,,,,,,,,,,,,,,space,0.820340871811,,,,,,,participant15,28,59.972861173,M,trial,2017_May_29_1231,
,,0.49,"[-6.75, 0]",/sounds/legit/left100.wav,,,,,0,0,0,33,,,,,,,,,,,,,,,left,0.185199975967,,,,,participant15,28,59.972861173,M,trial,2017_May_29_1231,
,,0.36,"[0, 0]",/sounds/legit/equal.wav,,,,,0,1,1,2,,,,,,,,,,,,,,,right,0.236332893372,,,,,participant15,28,59.972861173,M,trial,2017_May_29_1231,
,,0.1,"[-6.75, 0]",/sounds/legit/left100.wav,,,,,0,2,2,30,,,,,,,,,,,,,,,left,0.218924045563,,,,,participant15,28,59.972861173,M,trial,2017_May_29_1231,
,,0.62,"[-2.25, 0]",/sounds/legit/left35.wav,,,,,0,3,3,24,,,,,,,,,,,,,,,left,0.167526006699,,,,,participant15,28,59.972861173,M,trial,2017_May_29_1231,
,,0.49,"[-4.5, 0]",/sounds/legit/left70.wav,,,,,0,4,4,28,,,,,,,,,,,,,,,left,0.101709127426,,,,,participant15,28,59.972861173,M,trial,2017_May_29_1231,
,,0.1,"[-4.5, 0]",/sounds/legit/left70.wav,,,,,0,5,5,25,,,,,,,,,,,,,,,left,0.201435089111,,,,,participant15,28,59.972861173,M,trial,2017_May_29_1231,
,,0.49,"[6.75, 0]",/sounds/legit/right100.wav,,,,,0,6,6,18,,,,,,,,,,,,,,,right,0.101528167725,,,,,participant15,28,59.972861173,M,trial,2017_May_29_1231,
,,0.1,"[4.5, 0]",/sounds/legit/right70.wav,,,,,0,7,7,10,,,,,,,,,,,,,,,right,0.0179169178009,,,,,participant15,28,59.972861173,M,trial,2017_May_29_1231,
,,0.62,"[2.25, 0]",/sounds/legit/right35.wav,,,,,0,8,8,9,,,,,,,,,,,,,,,right,0.0515241622925,,,,,participant15,28,59.972861173,M,trial,2017_May_29_1231,
,,0.23,"[2.25, 0]",/sounds/legit/right35.wav,,,,,0,9,9,6,,,,,,,,,,,,,,,right,0.0682680606842,,,,,participant15,28,59.972861173,M,trial,2017_May_29_1231,
,,0.23,"[-4.5, 0]",/sounds/legit/left70.wav,,,,,0,10,10,26,,,,,,,,,,,,,,,left,1.77268314362,,,,,participant15,28,59.972861173,M,trial,2017_May_29_1231,
,,0.1,"[0, 0]",/sounds/legit/equal.wav,,,,,0,11,11,0,,,,,,,,,,,,,,,left,0.351916074753,,,,,participant15,28,59.972861173,M,trial,2017_May_29_1231,
,,0.23,"[-2.25, 0]",/sounds/legit/left35.wav,,,,,0,12,12,21,,,,,,,,,,,,,,,left,0.25194311142,,,,,participant15,28,59.972861173,M,trial,2017_May_29_1231,
,,0.62,"[-6.75, 0]",/sounds/legit/left100.wav,,,,,0,13,13,34,,,,,,,,,,,,,,,left,0.301888942719,,,,,participant15,28,59.972861173,M,trial,2017_May_29_1231,
,,0.49,"[0, 0]",/sounds/legit/equal.wav,,,,,0,14,14,3,,,,,,,,,,,,,,,left,0.185132026672,,,,,participant15,28,59.972861173,M,trial,2017_May_29_1231,
,,0.49,"[2.25, 0]",/sounds/legit/right35.wav,,,,,0,15,15,8,,,,,,,,,,,,,,,left,0.135018825531,,,,,participant15,28,59.972861173,M,trial,2017_May_29_1231,
,,0.23,"[4.5, 0]",/sounds/legit/right70.wav,,,,,0,16,16,11,,,,,,,,,,,,,,,right,0.168182849884,,,,,participant15,28,59.972861173,M,trial,2017_May_29_1231,
,,0.62,"[-4.5, 0]",/sounds/legit/left70.wav,,,,,0,17,17,29,,,,,,,,,,,,,,,left,0.218421936035,,,,,participant15,28,59.972861173,M,trial,2017_May_29_1231,
,,0.23,"[0, 0]",/sounds/legit/equal.wav,,,,,0,18,18,1,,,,,,,,,,,,,,,left,0.285555839539,,,,,participant15,28,59.972861173,M,trial,2017_May_29_1231,
,,0.23,"[6.75, 0]",/sounds/legit/right100.wav,,,,,0,19,19,16,,,,,,,,,,,,,,,right,0.184983968735,,,,,participant15,28,59.972861173,M,trial,2017_May_29_1231,
,,0.36,"[4.5, 0]",/sounds/legit/right70.wav,,,,,0,20,20,12,,,,,,,,,,,,,,,right,0.21853017807,,,,,participant15,28,59.972861173,M,trial,2017_May_29_1231,
,,0.1,"[2.25, 0]",/sounds/legit/right35.wav,,,,,0,21,21,5,,,,,,,,,,,,,,,right,0.15150308609,,,,,participant15,28,59.972861173,M,trial,2017_May_29_1231,
,,0.49,"[-2.25, 0]",/sounds/legit/left35.wav,,,,,0,22,22,23,,,,,,,,,,,,,,,right,0.185224056244,,,,,participant15,28,59.972861173,M,trial,2017_May_29_1231,
,,0.36,"[-2.25, 0]",/sounds/legit/left35.wav,,,,,0,23,23,22,,,,,,,,,,,,,,,left,0.0682389736176,,,,,participant15,28,59.972861173,M,trial,2017_May_29_1231,
,,0.36,"[-6.75, 0]",/sounds/legit/left100.wav,,,,,0,24,24,32,,,,,,,,,,,,,,,left,0.151401042938,,,,,participant15,28,59.972861173,M,trial,2017_May_29_1231,
,,0.1,"[6.75, 0]",/sounds/legit/right100.wav,,,,,0,25,25,15,,,,,,,,,,,,,,,right,0.0864360332489,,,,,participant15,28,59.972861173,M,trial,2017_May_29_1231,
,,0.23,"[-6.75, 0]",/sounds/legit/left100.wav,,,,,0,26,26,31,,,,,,,,,,,,,,,left,0.0849368572235,,,,,participant15,28,59.972861173,M,trial,2017_May_29_1231,
,,0.36,"[-4.5, 0]",/sounds/legit/left70.wav,,,,,0,27,27,27,,,,,,,,,,,,,,,left,0.803352117538,,,,,participant15,28,59.972861173,M,trial,2017_May_29_1231,
,,0.1,"[-2.25, 0]",/sounds/legit/left35.wav,,,,,0,28,28,20,,,,,,,,,,,,,,,left,0.251704931259,,,,,participant15,28,59.972861173,M,trial,2017_May_29_1231,
,,0.49,"[4.5, 0]",/sounds/legit/right70.wav,,,,,0,29,29,13,,,,,,,,,,,,,,,right,0.184998989105,,,,,participant15,28,59.972861173,M,trial,2017_May_29_1231,
,,0.62,"[6.75, 0]",/sounds/legit/right100.wav,,,,,0,30,30,19,,,,,,,,,,,,,,,left,0.118488073349,,,,,participant15,28,59.972861173,M,trial,2017_May_29_1231,
,,0.36,"[6.75, 0]",/sounds/legit/right100.wav,,,,,0,31,31,17,,,,,,,,,,,,,,,right,0.134808063507,,,,,participant15,28,59.972861173,M,trial,2017_May_29_1231,
,,0.62,"[0, 0]",/sounds/legit/equal.wav,,,,,0,32,32,4,,,,,,,,,,,,,,,left,0.185142040253,,,,,participant15,28,59.972861173,M,trial,2017_May_29_1231,
,,0.62,"[4.5, 0]",/sounds/legit/right70.wav,,,,,0,33,33,14,,,,,,,,,,,,,,,right,0.118088006973,,,,,participant15,28,59.972861173,M,trial,2017_May_29_1231,
,,0.36,"[2.25, 0]",/sounds/legit/right35.wav,,,,,0,34,34,7,,,,,,,,,,,,,,,right,0.152685880661,,,,,participant15,28,59.972861173,M,trial,2017_May_29_1231,
,,0.62,"[6.75, 0]",/sounds/legit/right100.wav,,,,,1,0,35,19,,,,,,,,,,,,,,,right,0.251815080643,,,,,participant15,28,59.972861173,M,trial,2017_May_29_1231,
,,0.49,"[4.5, 0]",/sounds/legit/right70.wav,,,,,1,1,36,13,,,,,,,,,,,,,,,right,0.151808977127,,,,,participant15,28,59.972861173,M,trial,2017_May_29_1231,
,,0.23,"[4.5, 0]",/sounds/legit/right70.wav,,,,,1,2,37,11,,,,,,,,,,,,,,,right,0.151240825653,,,,,participant15,28,59.972861173,M,trial,2017_May_29_1231,
,,0.1,"[0, 0]",/sounds/legit/equal.wav,,,,,1,3,38,0,,,,,,,,,,,,,,,left,0.150936841965,,,,,participant15,28,59.972861173,M,trial,2017_May_29_1231,
,,0.62,"[4.5, 0]",/sounds/legit/right70.wav,,,,,1,4,39,14,,,,,,,,,,,,,,,right,0.15083193779,,,,,participant15,28,59.972861173,M,trial,2017_May_29_1231,
,,0.1,"[-2.25, 0]",/sounds/legit/left35.wav,,,,,1,5,40,20,,,,,,,,,,,,,,,left,0.085373878479,,,,,participant15,28,59.972861173,M,trial,2017_May_29_1231,
,,0.36,"[0, 0]",/sounds/legit/equal.wav,,,,,1,6,41,2,,,,,,,,,,,,,,,left,0.135204076767,,,,,participant15,28,59.972861173,M,trial,2017_May_29_1231,
,,0.1,"[4.5, 0]",/sounds/legit/right70.wav,,,,,1,7,42,10,,,,,,,,,,,,,,,right,0.0172669887543,,,,,participant15,28,59.972861173,M,trial,2017_May_29_1231,
,,0.23,"[2.25, 0]",/sounds/legit/right35.wav,,,,,1,8,43,6,,,,,,,,,,,,,,,right,0.118363142014,,,,,participant15,28,59.972861173,M,trial,2017_May_29_1231,
,,0.23,"[-2.25, 0]",/sounds/legit/left35.wav,,,,,1,9,44,21,,,,,,,,,,,,,,,left,0.00128984451294,,,,,participant15,28,59.972861173,M,trial,2017_May_29_1231,
,,0.62,"[-6.75, 0]",/sounds/legit/left100.wav,,,,,1,10,45,34,,,,,,,,,,,,,,,left,0.118273019791,,,,,participant15,28,59.972861173,M,trial,2017_May_29_1231,
,,0.23,"[-6.75, 0]",/sounds/legit/left100.wav,,,,,1,11,46,31,,,,,,,,,,,,,,,left,0.118396997452,,,,,participant15,28,59.972861173,M,trial,2017_May_29_1231,
,,0.49,"[-6.75, 0]",/sounds/legit/left100.wav,,,,,1,12,47,33,,,,,,,,,,,,,,,left,0.118155956268,,,,,participant15,28,59.972861173,M,trial,2017_May_29_1231,
,,0.1,"[2.25, 0]",/sounds/legit/right35.wav,,,,,1,13,48,5,,,,,,,,,,,,,,,right,0.0515010356903,,,,,participant15,28,59.972861173,M,trial,2017_May_29_1231,
,,0.49,"[2.25, 0]",/sounds/legit/right35.wav,,,,,1,14,49,8,,,,,,,,,,,,,,,right,0.101415157318,,,,,participant15,28,59.972861173,M,trial,2017_May_29_1231,
,,0.23,"[0, 0]",/sounds/legit/equal.wav,,,,,1,15,50,1,,,,,,,,,,,,,,,left,0.168114185333,,,,,participant15,28,59.972861173,M,trial,2017_May_29_1231,
,,0.49,"[6.75, 0]",/sounds/legit/right100.wav,,,,,1,16,51,18,,,,,,,,,,,,,,,right,0.201676130295,,,,,participant15,28,59.972861173,M,trial,2017_May_29_1231,
,,0.36,"[6.75, 0]",/sounds/legit/right100.wav,,,,,1,17,52,17,,,,,,,,,,,,,,,right,0.101726055145,,,,,participant15,28,59.972861173,M,trial,2017_May_29_1231,
,,0.1,"[-6.75, 0]",/sounds/legit/left100.wav,,,,,1,18,53,30,,,,,,,,,,,,,,,left,0.0682718753815,,,,,participant15,28,59.972861173,M,trial,2017_May_29_1231,
,,0.36,"[2.25, 0]",/sounds/legit/right35.wav,,,,,1,19,54,7,,,,,,,,,,,,,,,left,0.218245029449,,,,,participant15,28,59.972861173,M,trial,2017_May_29_1231,
,,0.36,"[-4.5, 0]",/sounds/legit/left70.wav,,,,,1,20,55,27,,,,,,,,,,,,,,,left,0.134881973267,,,,,participant15,28,59.972861173,M,trial,2017_May_29_1231,
,,0.1,"[6.75, 0]",/sounds/legit/right100.wav,,,,,1,21,56,15,,,,,,,,,,,,,,,right,0.118230104446,,,,,participant15,28,59.972861173,M,trial,2017_May_29_1231,
,,0.49,"[-4.5, 0]",/sounds/legit/left70.wav,,,,,1,22,57,28,,,,,,,,,,,,,,,left,0.185148954391,,,,,participant15,28,59.972861173,M,trial,2017_May_29_1231,
,,0.36,"[4.5, 0]",/sounds/legit/right70.wav,,,,,1,23,58,12,,,,,,,,,,,,,,,right,0.752952098846,,,,,participant15,28,59.972861173,M,trial,2017_May_29_1231,
,,0.62,"[2.25, 0]",/sounds/legit/right35.wav,,,,,1,24,59,9,,,,,,,,,,,,,,,right,0.200951099396,,,,,participant15,28,59.972861173,M,trial,2017_May_29_1231,
,,0.23,"[6.75, 0]",/sounds/legit/right100.wav,,,,,1,25,60,16,,,,,,,,,,,,,,,right,0.0513491630554,,,,,participant15,28,59.972861173,M,trial,2017_May_29_1231,
,,0.1,"[-4.5, 0]",/sounds/legit/left70.wav,,,,,1,26,61,25,,,,,,,,,,,,,,,left,0.135125160217,,,,,participant15,28,59.972861173,M,trial,2017_May_29_1231,
,,0.36,"[-2.25, 0]",/sounds/legit/left35.wav,,,,,1,27,62,22,,,,,,,,,,,,,,,right,0.168225049973,,,,,participant15,28,59.972861173,M,trial,2017_May_29_1231,
,,0.49,"[-2.25, 0]",/sounds/legit/left35.wav,,,,,1,28,63,23,,,,,,,,,,,,,,,left,0.218306064606,,,,,participant15,28,59.972861173,M,trial,2017_May_29_1231,
,,0.36,"[-6.75, 0]",/sounds/legit/left100.wav,,,,,1,29,64,32,,,,,,,,,,,,,,,left,0.184900999069,,,,,participant15,28,59.972861173,M,trial,2017_May_29_1231,
,,0.62,"[0, 0]",/sounds/legit/equal.wav,,,,,1,30,65,4,,,,,,,,,,,,,,,right,0.469131231308,,,,,participant15,28,59.972861173,M,trial,2017_May_29_1231,
,,0.62,"[-2.25, 0]",/sounds/legit/left35.wav,,,,,1,31,66,24,,,,,,,,,,,,,,,left,0.28540802002,,,,,participant15,28,59.972861173,M,trial,2017_May_29_1231,
,,0.62,"[-4.5, 0]",/sounds/legit/left70.wav,,,,,1,32,67,29,,,,,,,,,,,,,,,left,0.218495845795,,,,,participant15,28,59.972861173,M,trial,2017_May_29_1231,
,,0.49,"[0, 0]",/sounds/legit/equal.wav,,,,,1,33,68,3,,,,,,,,,,,,,,,right,0.285486936569,,,,,participant15,28,59.972861173,M,trial,2017_May_29_1231,
,,0.23,"[-4.5, 0]",/sounds/legit/left70.wav,,,,,1,34,69,26,,,,,,,,,,,,,,,left,0.970267057419,,,,,participant15,28,59.972861173,M,trial,2017_May_29_1231,
,,0.23,"[-4.5, 0]",/sounds/legit/left70.wav,,,,,2,0,70,26,,,,,,,,,,,,,,,left,0.3686439991,,,,,participant15,28,59.972861173,M,trial,2017_May_29_1231,
,,0.23,"[4.5, 0]",/sounds/legit/right70.wav,,,,,2,1,71,11,,,,,,,,,,,,,,,right,0.168558120728,,,,,participant15,28,59.972861173,M,trial,2017_May_29_1231,
,,0.1,"[6.75, 0]",/sounds/legit/right100.wav,,,,,2,2,72,15,,,,,,,,,,,,,,,right,0.23512506485,,,,,participant15,28,59.972861173,M,trial,2017_May_29_1231,
,,0.36,"[-4.5, 0]",/sounds/legit/left70.wav,,,,,2,3,73,27,,,,,,,,,,,,,,,left,0.185037851334,,,,,participant15,28,59.972861173,M,trial,2017_May_29_1231,
,,0.49,"[4.5, 0]",/sounds/legit/right70.wav,,,,,2,4,74,13,,,,,,,,,,,,,,,right,0.235284090042,,,,,participant15,28,59.972861173,M,trial,2017_May_29_1231,
,,0.62,"[-6.75, 0]",/sounds/legit/left100.wav,,,,,2,5,75,34,,,,,,,,,,,,,,,left,0.251641988754,,,,,participant15,28,59.972861173,M,trial,2017_May_29_1231,
,,0.62,"[2.25, 0]",/sounds/legit/right35.wav,,,,,2,6,76,9,,,,,,,,,,,,,,,right,0.302144050598,,,,,participant15,28,59.972861173,M,trial,2017_May_29_1231,
,,0.62,"[6.75, 0]",/sounds/legit/right100.wav,,,,,2,7,77,19,,,,,,,,,,,,,,,right,0.251940965652,,,,,participant15,28,59.972861173,M,trial,2017_May_29_1231,
,,0.49,"[2.25, 0]",/sounds/legit/right35.wav,,,,,2,8,78,8,,,,,,,,,,,,,,,right,0.218543052673,,,,,participant15,28,59.972861173,M,trial,2017_May_29_1231,
,,0.36,"[2.25, 0]",/sounds/legit/right35.wav,,,,,2,9,79,7,,,,,,,,,,,,,,,right,0.368788003922,,,,,participant15,28,59.972861173,M,trial,2017_May_29_1231,
,,0.1,"[2.25, 0]",/sounds/legit/right35.wav,,,,,2,10,80,5,,,,,,,,,,,,,,,right,0.0672459602356,,,,,participant15,28,59.972861173,M,trial,2017_May_29_1231,
,,0.49,"[0, 0]",/sounds/legit/equal.wav,,,,,2,11,81,3,,,,,,,,,,,,,,,right,0.0850570201874,,,,,participant15,28,59.972861173,M,trial,2017_May_29_1231,
,,0.36,"[0, 0]",/sounds/legit/equal.wav,,,,,2,12,82,2,,,,,,,,,,,,,,,right,0.134984016418,,,,,participant15,28,59.972861173,M,trial,2017_May_29_1231,
,,0.1,"[-2.25, 0]",/sounds/legit/left35.wav,,,,,2,13,83,20,,,,,,,,,,,,,,,left,0.251929998398,,,,,participant15,28,59.972861173,M,trial,2017_May_29_1231,
,,0.36,"[-6.75, 0]",/sounds/legit/left100.wav,,,,,2,14,84,32,,,,,,,,,,,,,,,left,0.28453707695,,,,,participant15,28,59.972861173,M,trial,2017_May_29_1231,
,,0.1,"[4.5, 0]",/sounds/legit/right70.wav,,,,,2,15,85,10,,,,,,,,,,,,,,,right,0.268623113632,,,,,participant15,28,59.972861173,M,trial,2017_May_29_1231,
,,0.1,"[0, 0]",/sounds/legit/equal.wav,,,,,2,16,86,0,,,,,,,,,,,,,,,left,0.318363904953,,,,,participant15,28,59.972861173,M,trial,2017_May_29_1231,
,,0.49,"[-4.5, 0]",/sounds/legit/left70.wav,,,,,2,17,87,28,,,,,,,,,,,,,,,left,0.285405874252,,,,,participant15,28,59.972861173,M,trial,2017_May_29_1231,
,,0.62,"[-2.25, 0]",/sounds/legit/left35.wav,,,,,2,18,88,24,,,,,,,,,,,,,,,left,0.335503101349,,,,,participant15,28,59.972861173,M,trial,2017_May_29_1231,
,,0.23,"[0, 0]",/sounds/legit/equal.wav,,,,,2,19,89,1,,,,,,,,,,,,,,,right,0.769953012466,,,,,participant15,28,59.972861173,M,trial,2017_May_29_1231,
,,0.23,"[6.75, 0]",/sounds/legit/right100.wav,,,,,2,20,90,16,,,,,,,,,,,,,,,right,0.2018430233,,,,,participant15,28,59.972861173,M,trial,2017_May_29_1231,
,,0.49,"[-6.75, 0]",/sounds/legit/left100.wav,,,,,2,21,91,33,,,,,,,,,,,,,,,left,0.218424797058,,,,,participant15,28,59.972861173,M,trial,2017_May_29_1231,
,,0.62,"[4.5, 0]",/sounds/legit/right70.wav,,,,,2,22,92,14,,,,,,,,,,,,,,,right,0.0848150253296,,,,,participant15,28,59.972861173,M,trial,2017_May_29_1231,
,,0.23,"[2.25, 0]",/sounds/legit/right35.wav,,,,,2,23,93,6,,,,,,,,,,,,,,,right,0.170320987701,,,,,participant15,28,59.972861173,M,trial,2017_May_29_1231,
,,0.49,"[-2.25, 0]",/sounds/legit/left35.wav,,,,,2,24,94,23,,,,,,,,,,,,,,,left,0.134835958481,,,,,participant15,28,59.972861173,M,trial,2017_May_29_1231,
,,0.23,"[-6.75, 0]",/sounds/legit/left100.wav,,,,,2,25,95,31,,,,,,,,,,,,,,,left,0.100646018982,,,,,participant15,28,59.972861173,M,trial,2017_May_29_1231,
,,0.62,"[0, 0]",/sounds/legit/equal.wav,,,,,2,26,96,4,,,,,,,,,,,,,,,right,0.135349035263,,,,,participant15,28,59.972861173,M,trial,2017_May_29_1231,
,,0.1,"[-6.75, 0]",/sounds/legit/left100.wav,,,,,2,27,97,30,,,,,,,,,,,,,,,left,0.151872158051,,,,,participant15,28,59.972861173,M,trial,2017_May_29_1231,
,,0.36,"[-2.25, 0]",/sounds/legit/left35.wav,,,,,2,28,98,22,,,,,,,,,,,,,,,left,0.201814889908,,,,,participant15,28,59.972861173,M,trial,2017_May_29_1231,
,,0.36,"[4.5, 0]",/sounds/legit/right70.wav,,,,,2,29,99,12,,,,,,,,,,,,,,,right,0.185178995132,,,,,participant15,28,59.972861173,M,trial,2017_May_29_1231,
,,0.36,"[6.75, 0]",/sounds/legit/right100.wav,,,,,2,30,100,17,,,,,,,,,,,,,,,right,0.184821844101,,,,,participant15,28,59.972861173,M,trial,2017_May_29_1231,
,,0.49,"[6.75, 0]",/sounds/legit/right100.wav,,,,,2,31,101,18,,,,,,,,,,,,,,,right,0.33554983139,,,,,participant15,28,59.972861173,M,trial,2017_May_29_1231,
,,0.1,"[-4.5, 0]",/sounds/legit/left70.wav,,,,,2,32,102,25,,,,,,,,,,,,,,,left,0.0850350856781,,,,,participant15,28,59.972861173,M,trial,2017_May_29_1231,
,,0.23,"[-2.25, 0]",/sounds/legit/left35.wav,,,,,2,33,103,21,,,,,,,,,,,,,,,left,0.168506145477,,,,,participant15,28,59.972861173,M,trial,2017_May_29_1231,
,,0.62,"[-4.5, 0]",/sounds/legit/left70.wav,,,,,2,34,104,29,,,,,,,,,,,,,,,left,0.218587875366,,,,,participant15,28,59.972861173,M,trial,2017_May_29_1231,
,,0.23,"[6.75, 0]",/sounds/legit/right100.wav,,,,,3,0,105,16,,,,,,,,,,,,,,,right,0.151915073395,,,,,participant15,28,59.972861173,M,trial,2017_May_29_1231,
,,0.62,"[-2.25, 0]",/sounds/legit/left35.wav,,,,,3,1,106,24,,,,,,,,,,,,,,,left,0.184870004654,,,,,participant15,28,59.972861173,M,trial,2017_May_29_1231,
,,0.62,"[2.25, 0]",/sounds/legit/right35.wav,,,,,3,2,107,9,,,,,,,,,,,,,,,right,0.235202074051,,,,,participant15,28,59.972861173,M,trial,2017_May_29_1231,
,,0.23,"[-4.5, 0]",/sounds/legit/left70.wav,,,,,3,3,108,26,,,,,,,,,,,,,,,left,0.185042858124,,,,,participant15,28,59.972861173,M,trial,2017_May_29_1231,
,,0.36,"[4.5, 0]",/sounds/legit/right70.wav,,,,,3,4,109,12,,,,,,,,,,,,,,,left,1.03702306747,,,,,participant15,28,59.972861173,M,trial,2017_May_29_1231,
,,0.36,"[0, 0]",/sounds/legit/equal.wav,,,,,3,5,110,2,,,,,,,,,,,,,,,left,0.452344179153,,,,,participant15,28,59.972861173,M,trial,2017_May_29_1231,
,,0.36,"[2.25, 0]",/sounds/legit/right35.wav,,,,,3,6,111,7,,,,,,,,,,,,,,,right,0.135138988495,,,,,participant15,28,59.972861173,M,trial,2017_May_29_1231,
,,0.49,"[4.5, 0]",/sounds/legit/right70.wav,,,,,3,7,112,13,,,,,,,,,,,,,,,right,0.135018110275,,,,,participant15,28,59.972861173,M,trial,2017_May_29_1231,
,,0.62,"[-4.5, 0]",/sounds/legit/left70.wav,,,,,3,8,113,29,,,,,,,,,,,,,,,left,0.218726873398,,,,,participant15,28,59.972861173,M,trial,2017_May_29_1231,
,,0.36,"[-6.75, 0]",/sounds/legit/left100.wav,,,,,3,9,114,32,,,,,,,,,,,,,,,left,0.251949071884,,,,,participant15,28,59.972861173,M,trial,2017_May_29_1231,
,,0.62,"[0, 0]",/sounds/legit/equal.wav,,,,,3,10,115,4,,,,,,,,,,,,,,,right,0.385355949402,,,,,participant15,28,59.972861173,M,trial,2017_May_29_1231,
,,0.23,"[4.5, 0]",/sounds/legit/right70.wav,,,,,3,11,116,11,,,,,,,,,,,,,,,right,0.285417079926,,,,,participant15,28,59.972861173,M,trial,2017_May_29_1231,
,,0.49,"[-2.25, 0]",/sounds/legit/left35.wav,,,,,3,12,117,23,,,,,,,,,,,,,,,left,0.235482931137,,,,,participant15,28,59.972861173,M,trial,2017_May_29_1231,
,,0.23,"[-2.25, 0]",/sounds/legit/left35.wav,,,,,3,13,118,21,,,,,,,,,,,,,,,left,0.118655204773,,,,,participant15,28,59.972861173,M,trial,2017_May_29_1231,
,,0.36,"[-2.25, 0]",/sounds/legit/left35.wav,,,,,3,14,119,22,,,,,,,,,,,,,,,left,0.201790094376,,,,,participant15,28,59.972861173,M,trial,2017_May_29_1231,
,,0.1,"[-2.25, 0]",/sounds/legit/left35.wav,,,,,3,15,120,20,,,,,,,,,,,,,,,left,0.184893131256,,,,,participant15,28,59.972861173,M,trial,2017_May_29_1231,
,,0.36,"[-4.5, 0]",/sounds/legit/left70.wav,,,,,3,16,121,27,,,,,,,,,,,,,,,left,0.0852148532867,,,,,participant15,28,59.972861173,M,trial,2017_May_29_1231,
,,0.1,"[-4.5, 0]",/sounds/legit/left70.wav,,,,,3,17,122,25,,,,,,,,,,,,,,,left,0.0847449302673,,,,,participant15,28,59.972861173,M,trial,2017_May_29_1231,
,,0.62,"[6.75, 0]",/sounds/legit/right100.wav,,,,,3,18,123,19,,,,,,,,,,,,,,,right,0.168422937393,,,,,participant15,28,59.972861173,M,trial,2017_May_29_1231,
,,0.49,"[-6.75, 0]",/sounds/legit/left100.wav,,,,,3,19,124,33,,,,,,,,,,,,,,,right,0.135103940964,,,,,participant15,28,59.972861173,M,trial,2017_May_29_1231,
,,0.62,"[4.5, 0]",/sounds/legit/right70.wav,,,,,3,20,125,14,,,,,,,,,,,,,,,left,0.201905965805,,,,,participant15,28,59.972861173,M,trial,2017_May_29_1231,
,,0.23,"[2.25, 0]",/sounds/legit/right35.wav,,,,,3,21,126,6,,,,,,,,,,,,,,,right,0.118314027786,,,,,participant15,28,59.972861173,M,trial,2017_May_29_1231,
,,0.23,"[-6.75, 0]",/sounds/legit/left100.wav,,,,,3,22,127,31,,,,,,,,,,,,,,,left,0.068235874176,,,,,participant15,28,59.972861173,M,trial,2017_May_29_1231,
,,0.1,"[4.5, 0]",/sounds/legit/right70.wav,,,,,3,23,128,10,,,,,,,,,,,,,,,right,0.135019779205,,,,,participant15,28,59.972861173,M,trial,2017_May_29_1231,
,,0.23,"[0, 0]",/sounds/legit/equal.wav,,,,,3,24,129,1,,,,,,,,,,,,,,,left,0.168303012848,,,,,participant15,28,59.972861173,M,trial,2017_May_29_1231,
,,0.49,"[2.25, 0]",/sounds/legit/right35.wav,,,,,3,25,130,8,,,,,,,,,,,,,,,right,0.201699972153,,,,,participant15,28,59.972861173,M,trial,2017_May_29_1231,
,,0.1,"[2.25, 0]",/sounds/legit/right35.wav,,,,,3,26,131,5,,,,,,,,,,,,,,,right,0.134890079498,,,,,participant15,28,59.972861173,M,trial,2017_May_29_1231,
,,0.49,"[-4.5, 0]",/sounds/legit/left70.wav,,,,,3,27,132,28,,,,,,,,,,,,,,,left,0.118409872055,,,,,participant15,28,59.972861173,M,trial,2017_May_29_1231,
,,0.1,"[-6.75, 0]",/sounds/legit/left100.wav,,,,,3,28,133,30,,,,,,,,,,,,,,,left,0.218419075012,,,,,participant15,28,59.972861173,M,trial,2017_May_29_1231,
,,0.1,"[6.75, 0]",/sounds/legit/right100.wav,,,,,3,29,134,15,,,,,,,,,,,,,,,right,0.0350201129913,,,,,participant15,28,59.972861173,M,trial,2017_May_29_1231,
,,0.1,"[0, 0]",/sounds/legit/equal.wav,,,,,3,30,135,0,,,,,,,,,,,,,,,left,0.184802055359,,,,,participant15,28,59.972861173,M,trial,2017_May_29_1231,
,,0.62,"[-6.75, 0]",/sounds/legit/left100.wav,,,,,3,31,136,34,,,,,,,,,,,,,,,left,0.218573093414,,,,,participant15,28,59.972861173,M,trial,2017_May_29_1231,
,,0.49,"[0, 0]",/sounds/legit/equal.wav,,,,,3,32,137,3,,,,,,,,,,,,,,,right,0.335426807404,,,,,participant15,28,59.972861173,M,trial,2017_May_29_1231,
,,0.36,"[6.75, 0]",/sounds/legit/right100.wav,,,,,3,33,138,17,,,,,,,,,,,,,,,right,0.201753139496,,,,,participant15,28,59.972861173,M,trial,2017_May_29_1231,
,,0.49,"[6.75, 0]",/sounds/legit/right100.wav,,,,,3,34,139,18,,,,,,,,,,,,,,,right,0.201737165451,,,,,participant15,28,59.972861173,M,trial,2017_May_29_1231,
,,0.1,"[-6.75, 0]",/sounds/legit/left100.wav,,,,,4,0,140,30,,,,,,,,,,,,,,,left,0.201863050461,,,,,participant15,28,59.972861173,M,trial,2017_May_29_1231,
,,0.49,"[2.25, 0]",/sounds/legit/right35.wav,,,,,4,1,141,8,,,,,,,,,,,,,,,right,0.0839130878448,,,,,participant15,28,59.972861173,M,trial,2017_May_29_1231,
,,0.62,"[2.25, 0]",/sounds/legit/right35.wav,,,,,4,2,142,9,,,,,,,,,,,,,,,right,0.0680999755859,,,,,participant15,28,59.972861173,M,trial,2017_May_29_1231,
,,0.36,"[6.75, 0]",/sounds/legit/right100.wav,,,,,4,3,143,17,,,,,,,,,,,,,,,right,0.101996183395,,,,,participant15,28,59.972861173,M,trial,2017_May_29_1231,
,,0.1,"[0, 0]",/sounds/legit/equal.wav,,,,,4,4,144,0,,,,,,,,,,,,,,,right,0.185001134872,,,,,participant15,28,59.972861173,M,trial,2017_May_29_1231,
,,0.23,"[6.75, 0]",/sounds/legit/right100.wav,,,,,4,5,145,16,,,,,,,,,,,,,,,right,0.118311882019,,,,,participant15,28,59.972861173,M,trial,2017_May_29_1231,
,,0.23,"[4.5, 0]",/sounds/legit/right70.wav,,,,,4,6,146,11,,,,,,,,,,,,,,,right,0.118474960327,,,,,participant15,28,59.972861173,M,trial,2017_May_29_1231,
,,0.36,"[-4.5, 0]",/sounds/legit/left70.wav,,,,,4,7,147,27,,,,,,,,,,,,,,,left,0.168590068817,,,,,participant15,28,59.972861173,M,trial,2017_May_29_1231,
,,0.62,"[4.5, 0]",/sounds/legit/right70.wav,,,,,4,8,148,14,,,,,,,,,,,,,,,right,0.0848219394684,,,,,participant15,28,59.972861173,M,trial,2017_May_29_1231,
,,0.49,"[-2.25, 0]",/sounds/legit/left35.wav,,,,,4,9,149,23,,,,,,,,,,,,,,,right,0.23508310318,,,,,participant15,28,59.972861173,M,trial,2017_May_29_1231,
,,0.36,"[4.5, 0]",/sounds/legit/right70.wav,,,,,4,10,150,12,,,,,,,,,,,,,,,right,0.203097105026,,,,,participant15,28,59.972861173,M,trial,2017_May_29_1231,
,,0.49,"[-4.5, 0]",/sounds/legit/left70.wav,,,,,4,11,151,28,,,,,,,,,,,,,,,left,0.118291139603,,,,,participant15,28,59.972861173,M,trial,2017_May_29_1231,
,,0.1,"[-2.25, 0]",/sounds/legit/left35.wav,,,,,4,12,152,20,,,,,,,,,,,,,,,left,0.135055780411,,,,,participant15,28,59.972861173,M,trial,2017_May_29_1231,
,,0.1,"[2.25, 0]",/sounds/legit/right35.wav,,,,,4,13,153,5,,,,,,,,,,,,,,,right,0.0849058628082,,,,,participant15,28,59.972861173,M,trial,2017_May_29_1231,
,,0.36,"[0, 0]",/sounds/legit/equal.wav,,,,,4,14,154,2,,,,,,,,,,,,,,,left,0.0681178569794,,,,,participant15,28,59.972861173,M,trial,2017_May_29_1231,
,,0.23,"[0, 0]",/sounds/legit/equal.wav,,,,,4,15,155,1,,,,,,,,,,,,,,,right,0.484683036804,,,,,participant15,28,59.972861173,M,trial,2017_May_29_1231,
,,0.62,"[-2.25, 0]",/sounds/legit/left35.wav,,,,,4,16,156,24,,,,,,,,,,,,,,,left,0.118214845657,,,,,participant15,28,59.972861173,M,trial,2017_May_29_1231,
,,0.49,"[4.5, 0]",/sounds/legit/right70.wav,,,,,4,17,157,13,,,,,,,,,,,,,,,right,0.0347599983215,,,,,participant15,28,59.972861173,M,trial,2017_May_29_1231,
,,0.62,"[0, 0]",/sounds/legit/equal.wav,,,,,4,18,158,4,,,,,,,,,,,,,,,left,0.118191957474,,,,,participant15,28,59.972861173,M,trial,2017_May_29_1231,
,,0.49,"[6.75, 0]",/sounds/legit/right100.wav,,,,,4,19,159,18,,,,,,,,,,,,,,,right,0.118226051331,,,,,participant15,28,59.972861173,M,trial,2017_May_29_1231,
,,0.36,"[-6.75, 0]",/sounds/legit/left100.wav,,,,,4,20,160,32,,,,,,,,,,,,,,,left,0.118314027786,,,,,participant15,28,59.972861173,M,trial,2017_May_29_1231,
,,0.23,"[-6.75, 0]",/sounds/legit/left100.wav,,,,,4,21,161,31,,,,,,,,,,,,,,,left,0.151355981827,,,,,participant15,28,59.972861173,M,trial,2017_May_29_1231,
,,0.1,"[-4.5, 0]",/sounds/legit/left70.wav,,,,,4,22,162,25,,,,,,,,,,,,,,,left,0.0680758953094,,,,,participant15,28,59.972861173,M,trial,2017_May_29_1231,
,,0.23,"[-2.25, 0]",/sounds/legit/left35.wav,,,,,4,23,163,21,,,,,,,,,,,,,,,left,0.203227043152,,,,,participant15,28,59.972861173,M,trial,2017_May_29_1231,
,,0.36,"[2.25, 0]",/sounds/legit/right35.wav,,,,,4,24,164,7,,,,,,,,,,,,,,,left,0.167493104935,,,,,participant15,28,59.972861173,M,trial,2017_May_29_1231,
,,0.1,"[6.75, 0]",/sounds/legit/right100.wav,,,,,4,25,165,15,,,,,,,,,,,,,,,right,0.118296861649,,,,,participant15,28,59.972861173,M,trial,2017_May_29_1231,
,,0.49,"[0, 0]",/sounds/legit/equal.wav,,,,,4,26,166,3,,,,,,,,,,,,,,,left,0.101491212845,,,,,participant15,28,59.972861173,M,trial,2017_May_29_1231,
,,0.62,"[-4.5, 0]",/sounds/legit/left70.wav,,,,,4,27,167,29,,,,,,,,,,,,,,,left,0.435701131821,,,,,participant15,28,59.972861173,M,trial,2017_May_29_1231,
,,0.62,"[-6.75, 0]",/sounds/legit/left100.wav,,,,,4,28,168,34,,,,,,,,,,,,,,,left,0.201728105545,,,,,participant15,28,59.972861173,M,trial,2017_May_29_1231,
,,0.62,"[6.75, 0]",/sounds/legit/right100.wav,,,,,4,29,169,19,,,,,,,,,,,,,,,right,0.101425886154,,,,,participant15,28,59.972861173,M,trial,2017_May_29_1231,
,,0.23,"[2.25, 0]",/sounds/legit/right35.wav,,,,,4,30,170,6,,,,,,,,,,,,,,,right,0.0515041351318,,,,,participant15,28,59.972861173,M,trial,2017_May_29_1231,
,,0.36,"[-2.25, 0]",/sounds/legit/left35.wav,,,,,4,31,171,22,,,,,,,,,,,,,,,left,0.151704072952,,,,,participant15,28,59.972861173,M,trial,2017_May_29_1231,
,,0.49,"[-6.75, 0]",/sounds/legit/left100.wav,,,,,4,32,172,33,,,,,,,,,,,,,,,left,0.0515260696411,,,,,participant15,28,59.972861173,M,trial,2017_May_29_1231,
,,0.23,"[-4.5, 0]",/sounds/legit/left70.wav,,,,,4,33,173,26,,,,,,,,,,,,,,,left,0.101500988007,,,,,participant15,28,59.972861173,M,trial,2017_May_29_1231,
,,0.1,"[4.5, 0]",/sounds/legit/right70.wav,,,,,4,34,174,10,,,,,,,,,,,,,,,right,0.051265001297,,,,,participant15,28,59.972861173,M,trial,2017_May_29_1231,
,,0.36,"[-4.5, 0]",/sounds/legit/left70.wav,,,,,5,0,175,27,,,,,,,,,,,,,,,left,0.15181183815,,,,,participant15,28,59.972861173,M,trial,2017_May_29_1231,
,,0.49,"[-2.25, 0]",/sounds/legit/left35.wav,,,,,5,1,176,23,,,,,,,,,,,,,,,left,0.0850188732147,,,,,participant15,28,59.972861173,M,trial,2017_May_29_1231,
,,0.23,"[0, 0]",/sounds/legit/equal.wav,,,,,5,2,177,1,,,,,,,,,,,,,,,left,0.101521015167,,,,,participant15,28,59.972861173,M,trial,2017_May_29_1231,
,,0.62,"[-6.75, 0]",/sounds/legit/left100.wav,,,,,5,3,178,34,,,,,,,,,,,,,,,left,0.117932081223,,,,,participant15,28,59.972861173,M,trial,2017_May_29_1231,
,,0.36,"[4.5, 0]",/sounds/legit/right70.wav,,,,,5,4,179,12,,,,,,,,,,,,,,,right,0.0513319969177,,,,,participant15,28,59.972861173,M,trial,2017_May_29_1231,
,,0.36,"[0, 0]",/sounds/legit/equal.wav,,,,,5,5,180,2,,,,,,,,,,,,,,,left,0.502367019653,,,,,participant15,28,59.972861173,M,trial,2017_May_29_1231,
,,0.1,"[4.5, 0]",/sounds/legit/right70.wav,,,,,5,6,181,10,,,,,,,,,,,,,,,right,0.05131316185,,,,,participant15,28,59.972861173,M,trial,2017_May_29_1231,
,,0.1,"[6.75, 0]",/sounds/legit/right100.wav,,,,,5,7,182,15,,,,,,,,,,,,,,,right,0.0849978923798,,,,,participant15,28,59.972861173,M,trial,2017_May_29_1231,
,,0.1,"[-6.75, 0]",/sounds/legit/left100.wav,,,,,5,8,183,30,,,,,,,,,,,,,,,left,0.13507604599,,,,,participant15,28,59.972861173,M,trial,2017_May_29_1231,
,,0.49,"[2.25, 0]",/sounds/legit/right35.wav,,,,,5,9,184,8,,,,,,,,,,,,,,,right,0.0180599689484,,,,,participant15,28,59.972861173,M,trial,2017_May_29_1231,
,,0.23,"[-6.75, 0]",/sounds/legit/left100.wav,,,,,5,10,185,31,,,,,,,,,,,,,,,left,0.11814904213,,,,,participant15,28,59.972861173,M,trial,2017_May_29_1231,
,,0.1,"[0, 0]",/sounds/legit/equal.wav,,,,,5,11,186,0,,,,,,,,,,,,,,,right,0.886640071869,,,,,participant15,28,59.972861173,M,trial,2017_May_29_1231,
,,0.36,"[-2.25, 0]",/sounds/legit/left35.wav,,,,,5,12,187,22,,,,,,,,,,,,,,,left,0.0680530071259,,,,,participant15,28,59.972861173,M,trial,2017_May_29_1231,
,,0.62,"[4.5, 0]",/sounds/legit/right70.wav,,,,,5,13,188,14,,,,,,,,,,,,,,,left,0.0515060424805,,,,,participant15,28,59.972861173,M,trial,2017_May_29_1231,
,,0.1,"[-2.25, 0]",/sounds/legit/left35.wav,,,,,5,14,189,20,,,,,,,,,,,,,,,left,1.98903298378,,,,,participant15,28,59.972861173,M,trial,2017_May_29_1231,
,,0.23,"[-4.5, 0]",/sounds/legit/left70.wav,,,,,5,15,190,26,,,,,,,,,,,,,,,left,0.168349027634,,,,,participant15,28,59.972861173,M,trial,2017_May_29_1231,
,,0.49,"[-4.5, 0]",/sounds/legit/left70.wav,,,,,5,16,191,28,,,,,,,,,,,,,,,left,0.118240833282,,,,,participant15,28,59.972861173,M,trial,2017_May_29_1231,
,,0.49,"[-6.75, 0]",/sounds/legit/left100.wav,,,,,5,17,192,33,,,,,,,,,,,,,,,left,0.184845209122,,,,,participant15,28,59.972861173,M,trial,2017_May_29_1231,
,,0.62,"[-2.25, 0]",/sounds/legit/left35.wav,,,,,5,18,193,24,,,,,,,,,,,,,,,left,0.0681228637695,,,,,participant15,28,59.972861173,M,trial,2017_May_29_1231,
,,0.23,"[6.75, 0]",/sounds/legit/right100.wav,,,,,5,19,194,16,,,,,,,,,,,,,,,right,0.11833190918,,,,,participant15,28,59.972861173,M,trial,2017_May_29_1231,
,,0.23,"[-2.25, 0]",/sounds/legit/left35.wav,,,,,5,20,195,21,,,,,,,,,,,,,,,left,0.0512890815735,,,,,participant15,28,59.972861173,M,trial,2017_May_29_1231,
,,0.49,"[6.75, 0]",/sounds/legit/right100.wav,,,,,5,21,196,18,,,,,,,,,,,,,,,right,0.101451873779,,,,,participant15,28,59.972861173,M,trial,2017_May_29_1231,
,,0.36,"[-6.75, 0]",/sounds/legit/left100.wav,,,,,5,22,197,32,,,,,,,,,,,,,,,left,0.0350530147552,,,,,participant15,28,59.972861173,M,trial,2017_May_29_1231,
,,0.36,"[6.75, 0]",/sounds/legit/right100.wav,,,,,5,23,198,17,,,,,,,,,,,,,,,right,0.101491928101,,,,,participant15,28,59.972861173,M,trial,2017_May_29_1231,
,,0.36,"[2.25, 0]",/sounds/legit/right35.wav,,,,,5,24,199,7,,,,,,,,,,,,,,,right,0.168443202972,,,,,participant15,28,59.972861173,M,trial,2017_May_29_1231,
,,0.62,"[6.75, 0]",/sounds/legit/right100.wav,,,,,5,25,200,19,,,,,,,,,,,,,,,right,0.051265001297,,,,,participant15,28,59.972861173,M,trial,2017_May_29_1231,
,,0.62,"[0, 0]",/sounds/legit/equal.wav,,,,,5,26,201,4,,,,,,,,,,,,,,,left,0.00128817558289,,,,,participant15,28,59.972861173,M,trial,2017_May_29_1231,
,,0.23,"[4.5, 0]",/sounds/legit/right70.wav,,,,,5,27,202,11,,,,,,,,,,,,,,,right,0.0849659442902,,,,,participant15,28,59.972861173,M,trial,2017_May_29_1231,
,,0.62,"[2.25, 0]",/sounds/legit/right35.wav,,,,,5,28,203,9,,,,,,,,,,,,,,,right,0.00156307220459,,,,,participant15,28,59.972861173,M,trial,2017_May_29_1231,
,,0.49,"[0, 0]",/sounds/legit/equal.wav,,,,,5,29,204,3,,,,,,,,,,,,,,,right,0.318671941757,,,,,participant15,28,59.972861173,M,trial,2017_May_29_1231,
,,0.1,"[2.25, 0]",/sounds/legit/right35.wav,,,,,5,30,205,5,,,,,,,,,,,,,,,right,0.0849177837372,,,,,participant15,28,59.972861173,M,trial,2017_May_29_1231,
,,0.62,"[-4.5, 0]",/sounds/legit/left70.wav,,,,,5,31,206,29,,,,,,,,,,,,,,,left,0.135040998459,,,,,participant15,28,59.972861173,M,trial,2017_May_29_1231,
,,0.1,"[-4.5, 0]",/sounds/legit/left70.wav,,,,,5,32,207,25,,,,,,,,,,,,,,,left,0.118372917175,,,,,participant15,28,59.972861173,M,trial,2017_May_29_1231,
,,0.23,"[2.25, 0]",/sounds/legit/right35.wav,,,,,5,33,208,6,,,,,,,,,,,,,,,right,0.00133085250854,,,,,participant15,28,59.972861173,M,trial,2017_May_29_1231,
,,0.49,"[4.5, 0]",/sounds/legit/right70.wav,,,,,5,34,209,13,,,,,,,,,,,,,,,right,0.0847489833832,,,,,participant15,28,59.972861173,M,trial,2017_May_29_1231,
,,0.1,"[-2.25, 0]",/sounds/legit/left35.wav,,,,,6,0,210,20,,,,,,,,,,,,,,,left,0.218591928482,,,,,participant15,28,59.972861173,M,trial,2017_May_29_1231,
,,0.62,"[4.5, 0]",/sounds/legit/right70.wav,,,,,6,1,211,14,,,,,,,,,,,,,,,right,0.0845601558685,,,,,participant15,28,59.972861173,M,trial,2017_May_29_1231,
,,0.62,"[-2.25, 0]",/sounds/legit/left35.wav,,,,,6,2,212,24,,,,,,,,,,,,,,,left,0.153158903122,,,,,participant15,28,59.972861173,M,trial,2017_May_29_1231,
,,0.36,"[-6.75, 0]",/sounds/legit/left100.wav,,,,,6,3,213,32,,,,,,,,,,,,,,,left,0.13513302803,,,,,participant15,28,59.972861173,M,trial,2017_May_29_1231,
,,0.49,"[2.25, 0]",/sounds/legit/right35.wav,,,,,6,4,214,8,,,,,,,,,,,,,,,right,0.00156784057617,,,,,participant15,28,59.972861173,M,trial,2017_May_29_1231,
,,0.49,"[-4.5, 0]",/sounds/legit/left70.wav,,,,,6,5,215,28,,,,,,,,,,,,,,,left,0.235003948212,,,,,participant15,28,59.972861173,M,trial,2017_May_29_1231,
,,0.23,"[-2.25, 0]",/sounds/legit/left35.wav,,,,,6,6,216,21,,,,,,,,,,,,,,,left,0.0514719486237,,,,,participant15,28,59.972861173,M,trial,2017_May_29_1231,
,,0.36,"[-4.5, 0]",/sounds/legit/left70.wav,,,,,6,7,217,27,,,,,,,,,,,,,,,left,0.00129914283752,,,,,participant15,28,59.972861173,M,trial,2017_May_29_1231,
,,0.1,"[0, 0]",/sounds/legit/equal.wav,,,,,6,8,218,0,,,,,,,,,,,,,,,right,1.37067914009,,,,,participant15,28,59.972861173,M,trial,2017_May_29_1231,
,,0.49,"[-2.25, 0]",/sounds/legit/left35.wav,,,,,6,9,219,23,,,,,,,,,,,,,,,right,0.134846925735,,,,,participant15,28,59.972861173,M,trial,2017_May_29_1231,
,,0.36,"[6.75, 0]",/sounds/legit/right100.wav,,,,,6,10,220,17,,,,,,,,,,,,,,,right,0.10175204277,,,,,participant15,28,59.972861173,M,trial,2017_May_29_1231,
,,0.49,"[6.75, 0]",/sounds/legit/right100.wav,,,,,6,11,221,18,,,,,,,,,,,,,,,right,0.0839190483093,,,,,participant15,28,59.972861173,M,trial,2017_May_29_1231,
,,0.62,"[6.75, 0]",/sounds/legit/right100.wav,,,,,6,12,222,19,,,,,,,,,,,,,,,right,0.00134706497192,,,,,participant15,28,59.972861173,M,trial,2017_May_29_1231,
,,0.36,"[4.5, 0]",/sounds/legit/right70.wav,,,,,6,13,223,12,,,,,,,,,,,,,,,right,0.0514369010925,,,,,participant15,28,59.972861173,M,trial,2017_May_29_1231,
,,0.1,"[4.5, 0]",/sounds/legit/right70.wav,,,,,6,14,224,10,,,,,,,,,,,,,,,right,0.0848801136017,,,,,participant15,28,59.972861173,M,trial,2017_May_29_1231,
,,0.36,"[0, 0]",/sounds/legit/equal.wav,,,,,6,15,225,2,,,,,,,,,,,,,,,left,0.218681097031,,,,,participant15,28,59.972861173,M,trial,2017_May_29_1231,
,,0.62,"[-4.5, 0]",/sounds/legit/left70.wav,,,,,6,16,226,29,,,,,,,,,,,,,,,left,0.135030031204,,,,,participant15,28,59.972861173,M,trial,2017_May_29_1231,
,,0.49,"[4.5, 0]",/sounds/legit/right70.wav,,,,,6,17,227,13,,,,,,,,,,,,,,,right,0.0345602035522,,,,,participant15,28,59.972861173,M,trial,2017_May_29_1231,
,,0.49,"[0, 0]",/sounds/legit/equal.wav,,,,,6,18,228,3,,,,,,,,,,,,,,,left,0.068165063858,,,,,participant15,28,59.972861173,M,trial,2017_May_29_1231,
,,0.23,"[6.75, 0]",/sounds/legit/right100.wav,,,,,6,19,229,16,,,,,,,,,,,,,,,right,0.134945869446,,,,,participant15,28,59.972861173,M,trial,2017_May_29_1231,
,,0.62,"[-6.75, 0]",/sounds/legit/left100.wav,,,,,6,20,230,34,,,,,,,,,,,,,,,left,0.0347599983215,,,,,participant15,28,59.972861173,M,trial,2017_May_29_1231,
,,0.1,"[-4.5, 0]",/sounds/legit/left70.wav,,,,,6,21,231,25,,,,,,,,,,,,,,,left,0.135082006454,,,,,participant15,28,59.972861173,M,trial,2017_May_29_1231,
,,0.36,"[-2.25, 0]",/sounds/legit/left35.wav,,,,,6,22,232,22,,,,,,,,,,,,,,,left,0.0682520866394,,,,,participant15,28,59.972861173,M,trial,2017_May_29_1231,
,,0.1,"[2.25, 0]",/sounds/legit/right35.wav,,,,,6,23,233,5,,,,,,,,,,,,,,,right,0.0848391056061,,,,,participant15,28,59.972861173,M,trial,2017_May_29_1231,
,,0.23,"[4.5, 0]",/sounds/legit/right70.wav,,,,,6,24,234,11,,,,,,,,,,,,,,,right,0.118251085281,,,,,participant15,28,59.972861173,M,trial,2017_May_29_1231,
,,0.62,"[2.25, 0]",/sounds/legit/right35.wav,,,,,6,25,235,9,,,,,,,,,,,,,,,right,0.0506370067596,,,,,participant15,28,59.972861173,M,trial,2017_May_29_1231,
,,0.23,"[-6.75, 0]",/sounds/legit/left100.wav,,,,,6,26,236,31,,,,,,,,,,,,,,,left,0.0179162025452,,,,,participant15,28,59.972861173,M,trial,2017_May_29_1231,
,,0.1,"[-6.75, 0]",/sounds/legit/left100.wav,,,,,6,27,237,30,,,,,,,,,,,,,,,left,0.0839569568634,,,,,participant15,28,59.972861173,M,trial,2017_May_29_1231,
,,0.23,"[0, 0]",/sounds/legit/equal.wav,,,,,6,28,238,1,,,,,,,,,,,,,,,left,0.285224199295,,,,,participant15,28,59.972861173,M,trial,2017_May_29_1231,
,,0.62,"[0, 0]",/sounds/legit/equal.wav,,,,,6,29,239,4,,,,,,,,,,,,,,,right,0.201589822769,,,,,participant15,28,59.972861173,M,trial,2017_May_29_1231,
,,0.36,"[2.25, 0]",/sounds/legit/right35.wav,,,,,6,30,240,7,,,,,,,,,,,,,,,right,0.0346710681915,,,,,participant15,28,59.972861173,M,trial,2017_May_29_1231,
,,0.23,"[-4.5, 0]",/sounds/legit/left70.wav,,,,,6,31,241,26,,,,,,,,,,,,,,,left,0.185229063034,,,,,participant15,28,59.972861173,M,trial,2017_May_29_1231,
,,0.1,"[6.75, 0]",/sounds/legit/right100.wav,,,,,6,32,242,15,,,,,,,,,,,,,,,right,0.134969949722,,,,,participant15,28,59.972861173,M,trial,2017_May_29_1231,
,,0.23,"[2.25, 0]",/sounds/legit/right35.wav,,,,,6,33,243,6,,,,,,,,,,,,,,,right,0.06924700737,,,,,participant15,28,59.972861173,M,trial,2017_May_29_1231,
,,0.49,"[-6.75, 0]",/sounds/legit/left100.wav,,,,,6,34,244,33,,,,,,,,,,,,,,,left,0.068342924118,,,,,participant15,28,59.972861173,M,trial,2017_May_29_1231,
,,0.36,"[-4.5, 0]",/sounds/legit/left70.wav,,,,,7,0,245,27,,,,,,,,,,,,,,,left,0.150970935822,,,,,participant15,28,59.972861173,M,trial,2017_May_29_1231,
,,0.1,"[6.75, 0]",/sounds/legit/right100.wav,,,,,7,1,246,15,,,,,,,,,,,,,,,right,0.0347759723663,,,,,participant15,28,59.972861173,M,trial,2017_May_29_1231,
,,0.62,"[-6.75, 0]",/sounds/legit/left100.wav,,,,,7,2,247,34,,,,,,,,,,,,,,,left,0.202018976212,,,,,participant15,28,59.972861173,M,trial,2017_May_29_1231,
,,0.23,"[-2.25, 0]",/sounds/legit/left35.wav,,,,,7,3,248,21,,,,,,,,,,,,,,,left,0.0514979362488,,,,,participant15,28,59.972861173,M,trial,2017_May_29_1231,
,,0.23,"[-6.75, 0]",/sounds/legit/left100.wav,,,,,7,4,249,31,,,,,,,,,,,,,,,left,0.0512199401855,,,,,participant15,28,59.972861173,M,trial,2017_May_29_1231,
,,0.1,"[-2.25, 0]",/sounds/legit/left35.wav,,,,,7,5,250,20,,,,,,,,,,,,,,,left,1.55461883545,,,,,participant15,28,59.972861173,M,trial,2017_May_29_1231,
,,0.49,"[-4.5, 0]",/sounds/legit/left70.wav,,,,,7,6,251,28,,,,,,,,,,,,,,,left,0.418800115585,,,,,participant15,28,59.972861173,M,trial,2017_May_29_1231,
,,0.62,"[2.25, 0]",/sounds/legit/right35.wav,,,,,7,7,252,9,,,,,,,,,,,,,,,left,0.235393047333,,,,,participant15,28,59.972861173,M,trial,2017_May_29_1231,
,,0.62,"[-4.5, 0]",/sounds/legit/left70.wav,,,,,7,8,253,29,,,,,,,,,,,,,,,left,0.13511800766,,,,,participant15,28,59.972861173,M,trial,2017_May_29_1231,
,,0.49,"[4.5, 0]",/sounds/legit/right70.wav,,,,,7,9,254,13,,,,,,,,,,,,,,,right,0.185152053833,,,,,participant15,28,59.972861173,M,trial,2017_May_29_1231,
,,0.23,"[0, 0]",/sounds/legit/equal.wav,,,,,7,10,255,1,,,,,,,,,,,,,,,right,0.084666967392,,,,,participant15,28,59.972861173,M,trial,2017_May_29_1231,
,,0.23,"[4.5, 0]",/sounds/legit/right70.wav,,,,,7,11,256,11,,,,,,,,,,,,,,,right,0.0686151981354,,,,,participant15,28,59.972861173,M,trial,2017_May_29_1231,
,,0.1,"[-4.5, 0]",/sounds/legit/left70.wav,,,,,7,12,257,25,,,,,,,,,,,,,,,left,0.10183596611,,,,,participant15,28,59.972861173,M,trial,2017_May_29_1231,
,,0.62,"[6.75, 0]",/sounds/legit/right100.wav,,,,,7,13,258,19,,,,,,,,,,,,,,,right,0.0677618980408,,,,,participant15,28,59.972861173,M,trial,2017_May_29_1231,
,,0.36,"[4.5, 0]",/sounds/legit/right70.wav,,,,,7,14,259,12,,,,,,,,,,,,,,,right,0.11848115921,,,,,participant15,28,59.972861173,M,trial,2017_May_29_1231,
,,0.1,"[4.5, 0]",/sounds/legit/right70.wav,,,,,7,15,260,10,,,,,,,,,,,,,,,right,0.068097114563,,,,,participant15,28,59.972861173,M,trial,2017_May_29_1231,
,,0.36,"[-6.75, 0]",/sounds/legit/left100.wav,,,,,7,16,261,32,,,,,,,,,,,,,,,left,0.051390171051,,,,,participant15,28,59.972861173,M,trial,2017_May_29_1231,
,,0.1,"[-6.75, 0]",/sounds/legit/left100.wav,,,,,7,17,262,30,,,,,,,,,,,,,,,left,0.117386102676,,,,,participant15,28,59.972861173,M,trial,2017_May_29_1231,
,,0.1,"[0, 0]",/sounds/legit/equal.wav,,,,,7,18,263,0,,,,,,,,,,,,,,,left,0.151818037033,,,,,participant15,28,59.972861173,M,trial,2017_May_29_1231,
,,0.23,"[-4.5, 0]",/sounds/legit/left70.wav,,,,,7,19,264,26,,,,,,,,,,,,,,,left,0.168746948242,,,,,participant15,28,59.972861173,M,trial,2017_May_29_1231,
,,0.49,"[-2.25, 0]",/sounds/legit/left35.wav,,,,,7,20,265,23,,,,,,,,,,,,,,,left,0.268689870834,,,,,participant15,28,59.972861173,M,trial,2017_May_29_1231,
,,0.36,"[2.25, 0]",/sounds/legit/right35.wav,,,,,7,21,266,7,,,,,,,,,,,,,,,right,0.134876966476,,,,,participant15,28,59.972861173,M,trial,2017_May_29_1231,
,,0.36,"[0, 0]",/sounds/legit/equal.wav,,,,,7,22,267,2,,,,,,,,,,,,,,,right,0.168339967728,,,,,participant15,28,59.972861173,M,trial,2017_May_29_1231,
,,0.49,"[2.25, 0]",/sounds/legit/right35.wav,,,,,7,23,268,8,,,,,,,,,,,,,,,right,0.13484787941,,,,,participant15,28,59.972861173,M,trial,2017_May_29_1231,
,,0.49,"[0, 0]",/sounds/legit/equal.wav,,,,,7,24,269,3,,,,,,,,,,,,,,,right,0.134945869446,,,,,participant15,28,59.972861173,M,trial,2017_May_29_1231,
,,0.49,"[6.75, 0]",/sounds/legit/right100.wav,,,,,7,25,270,18,,,,,,,,,,,,,,,right,0.102056980133,,,,,participant15,28,59.972861173,M,trial,2017_May_29_1231,
,,0.62,"[4.5, 0]",/sounds/legit/right70.wav,,,,,7,26,271,14,,,,,,,,,,,,,,,right,0.10143494606,,,,,participant15,28,59.972861173,M,trial,2017_May_29_1231,
,,0.36,"[-2.25, 0]",/sounds/legit/left35.wav,,,,,7,27,272,22,,,,,,,,,,,,,,,left,0.13498210907,,,,,participant15,28,59.972861173,M,trial,2017_May_29_1231,
,,0.36,"[6.75, 0]",/sounds/legit/right100.wav,,,,,7,28,273,17,,,,,,,,,,,,,,,right,0.118311882019,,,,,participant15,28,59.972861173,M,trial,2017_May_29_1231,
,,0.62,"[-2.25, 0]",/sounds/legit/left35.wav,,,,,7,29,274,24,,,,,,,,,,,,,,,right,0.151499032974,,,,,participant15,28,59.972861173,M,trial,2017_May_29_1231,
,,0.1,"[2.25, 0]",/sounds/legit/right35.wav,,,,,7,30,275,5,,,,,,,,,,,,,,,right,0.134969949722,,,,,participant15,28,59.972861173,M,trial,2017_May_29_1231,
,,0.49,"[-6.75, 0]",/sounds/legit/left100.wav,,,,,7,31,276,33,,,,,,,,,,,,,,,left,0.201689004898,,,,,participant15,28,59.972861173,M,trial,2017_May_29_1231,
,,0.23,"[2.25, 0]",/sounds/legit/right35.wav,,,,,7,32,277,6,,,,,,,,,,,,,,,right,0.11812210083,,,,,participant15,28,59.972861173,M,trial,2017_May_29_1231,
,,0.23,"[6.75, 0]",/sounds/legit/right100.wav,,,,,7,33,278,16,,,,,,,,,,,,,,,right,0.118217945099,,,,,participant15,28,59.972861173,M,trial,2017_May_29_1231,
,,0.62,"[0, 0]",/sounds/legit/equal.wav,,,,,7,34,279,4,,,,,,,,,,,,,,,left,0.101669073105,,,,,participant15,28,59.972861173,M,trial,2017_May_29_1231,
,,0.36,"[6.75, 0]",/sounds/legit/right100.wav,,,,,8,0,280,17,,,,,,,,,,,,,,,right,0.0681009292603,,,,,participant15,28,59.972861173,M,trial,2017_May_29_1231,
,,0.1,"[6.75, 0]",/sounds/legit/right100.wav,,,,,8,1,281,15,,,,,,,,,,,,,,,right,0.101408004761,,,,,participant15,28,59.972861173,M,trial,2017_May_29_1231,
,,0.36,"[-4.5, 0]",/sounds/legit/left70.wav,,,,,8,2,282,27,,,,,,,,,,,,,,,left,0.134927034378,,,,,participant15,28,59.972861173,M,trial,2017_May_29_1231,
,,0.1,"[2.25, 0]",/sounds/legit/right35.wav,,,,,8,3,283,5,,,,,,,,,,,,,,,right,0.0680119991302,,,,,participant15,28,59.972861173,M,trial,2017_May_29_1231,
,,0.62,"[6.75, 0]",/sounds/legit/right100.wav,,,,,8,4,284,19,,,,,,,,,,,,,,,left,0.151561021805,,,,,participant15,28,59.972861173,M,trial,2017_May_29_1231,
,,0.49,"[2.25, 0]",/sounds/legit/right35.wav,,,,,8,5,285,8,,,,,,,,,,,,,,,right,0.0850219726562,,,,,participant15,28,59.972861173,M,trial,2017_May_29_1231,
,,0.23,"[-6.75, 0]",/sounds/legit/left100.wav,,,,,8,6,286,31,,,,,,,,,,,,,,,left,0.151767969131,,,,,participant15,28,59.972861173,M,trial,2017_May_29_1231,
,,0.62,"[0, 0]",/sounds/legit/equal.wav,,,,,8,7,287,4,,,,,,,,,,,,,,,left,0.151631832123,,,,,participant15,28,59.972861173,M,trial,2017_May_29_1231,
,,0.49,"[-2.25, 0]",/sounds/legit/left35.wav,,,,,8,8,288,23,,,,,,,,,,,,,,,left,0.0521268844604,,,,,participant15,28,59.972861173,M,trial,2017_May_29_1231,
,,0.49,"[-6.75, 0]",/sounds/legit/left100.wav,,,,,8,9,289,33,,,,,,,,,,,,,,,left,0.0336990356445,,,,,participant15,28,59.972861173,M,trial,2017_May_29_1231,
,,0.62,"[2.25, 0]",/sounds/legit/right35.wav,,,,,8,10,290,9,,,,,,,,,,,,,,,right,0.0345129966736,,,,,participant15,28,59.972861173,M,trial,2017_May_29_1231,
,,0.49,"[6.75, 0]",/sounds/legit/right100.wav,,,,,8,11,291,18,,,,,,,,,,,,,,,right,0.00129199028015,,,,,participant15,28,59.972861173,M,trial,2017_May_29_1231,
,,0.23,"[4.5, 0]",/sounds/legit/right70.wav,,,,,8,12,292,11,,,,,,,,,,,,,,,right,0.0348088741302,,,,,participant15,28,59.972861173,M,trial,2017_May_29_1231,
,,0.1,"[0, 0]",/sounds/legit/equal.wav,,,,,8,13,293,0,,,,,,,,,,,,,,,left,0.151407957077,,,,,participant15,28,59.972861173,M,trial,2017_May_29_1231,
,,0.1,"[4.5, 0]",/sounds/legit/right70.wav,,,,,8,14,294,10,,,,,,,,,,,,,,,right,0.0346410274506,,,,,participant15,28,59.972861173,M,trial,2017_May_29_1231,
,,0.1,"[-2.25, 0]",/sounds/legit/left35.wav,,,,,8,15,295,20,,,,,,,,,,,,,,,left,0.184912204742,,,,,participant15,28,59.972861173,M,trial,2017_May_29_1231,
,,0.23,"[-2.25, 0]",/sounds/legit/left35.wav,,,,,8,16,296,21,,,,,,,,,,,,,,,left,0.185072898865,,,,,participant15,28,59.972861173,M,trial,2017_May_29_1231,
,,0.62,"[-6.75, 0]",/sounds/legit/left100.wav,,,,,8,17,297,34,,,,,,,,,,,,,,,left,0.185058116913,,,,,participant15,28,59.972861173,M,trial,2017_May_29_1231,
,,0.36,"[-2.25, 0]",/sounds/legit/left35.wav,,,,,8,18,298,22,,,,,,,,,,,,,,,left,0.0837829113007,,,,,participant15,28,59.972861173,M,trial,2017_May_29_1231,
,,0.49,"[-4.5, 0]",/sounds/legit/left70.wav,,,,,8,19,299,28,,,,,,,,,,,,,,,left,0.118345975876,,,,,participant15,28,59.972861173,M,trial,2017_May_29_1231,
,,0.36,"[0, 0]",/sounds/legit/equal.wav,,,,,8,20,300,2,,,,,,,,,,,,,,,right,0.0514061450958,,,,,participant15,28,59.972861173,M,trial,2017_May_29_1231,
,,0.62,"[-2.25, 0]",/sounds/legit/left35.wav,,,,,8,21,301,24,,,,,,,,,,,,,,,left,0.13517999649,,,,,participant15,28,59.972861173,M,trial,2017_May_29_1231,
,,0.23,"[0, 0]",/sounds/legit/equal.wav,,,,,8,22,302,1,,,,,,,,,,,,,,,left,0.168281078339,,,,,participant15,28,59.972861173,M,trial,2017_May_29_1231,
,,0.62,"[-4.5, 0]",/sounds/legit/left70.wav,,,,,8,23,303,29,,,,,,,,,,,,,,,left,0.0679619312286,,,,,participant15,28,59.972861173,M,trial,2017_May_29_1231,
,,0.36,"[4.5, 0]",/sounds/legit/right70.wav,,,,,8,24,304,12,,,,,,,,,,,,,,,right,0.117474079132,,,,,participant15,28,59.972861173,M,trial,2017_May_29_1231,
,,0.62,"[4.5, 0]",/sounds/legit/right70.wav,,,,,8,25,305,14,,,,,,,,,,,,,,,right,0.0345830917358,,,,,participant15,28,59.972861173,M,trial,2017_May_29_1231,
,,0.23,"[6.75, 0]",/sounds/legit/right100.wav,,,,,8,26,306,16,,,,,,,,,,,,,,,right,0.201712846756,,,,,participant15,28,59.972861173,M,trial,2017_May_29_1231,
,,0.23,"[2.25, 0]",/sounds/legit/right35.wav,,,,,8,27,307,6,,,,,,,,,,,,,,,right,0.0847690105438,,,,,participant15,28,59.972861173,M,trial,2017_May_29_1231,
,,0.49,"[4.5, 0]",/sounds/legit/right70.wav,,,,,8,28,308,13,,,,,,,,,,,,,,,right,0.0515100955963,,,,,participant15,28,59.972861173,M,trial,2017_May_29_1231,
,,0.1,"[-4.5, 0]",/sounds/legit/left70.wav,,,,,8,29,309,25,,,,,,,,,,,,,,,left,0.1517329216,,,,,participant15,28,59.972861173,M,trial,2017_May_29_1231,
,,0.1,"[-6.75, 0]",/sounds/legit/left100.wav,,,,,8,30,310,30,,,,,,,,,,,,,,,left,0.101538896561,,,,,participant15,28,59.972861173,M,trial,2017_May_29_1231,
,,0.49,"[0, 0]",/sounds/legit/equal.wav,,,,,8,31,311,3,,,,,,,,,,,,,,,left,0.0849969387054,,,,,participant15,28,59.972861173,M,trial,2017_May_29_1231,
,,0.23,"[-4.5, 0]",/sounds/legit/left70.wav,,,,,8,32,312,26,,,,,,,,,,,,,,,left,1.32078504562,,,,,participant15,28,59.972861173,M,trial,2017_May_29_1231,
,,0.36,"[-6.75, 0]",/sounds/legit/left100.wav,,,,,8,33,313,32,,,,,,,,,,,,,,,right,0.0680010318756,,,,,participant15,28,59.972861173,M,trial,2017_May_29_1231,
,,0.36,"[2.25, 0]",/sounds/legit/right35.wav,,,,,8,34,314,7,,,,,,,,,,,,,,,right,0.101469993591,,,,,participant15,28,59.972861173,M,trial,2017_May_29_1231,
,,0.23,"[-6.75, 0]",/sounds/legit/left100.wav,,,,,9,0,315,31,,,,,,,,,,,,,,,left,0.0346369743347,,,,,participant15,28,59.972861173,M,trial,2017_May_29_1231,
,,0.36,"[0, 0]",/sounds/legit/equal.wav,,,,,9,1,316,2,,,,,,,,,,,,,,,right,0.11833691597,,,,,participant15,28,59.972861173,M,trial,2017_May_29_1231,
,,0.36,"[-2.25, 0]",/sounds/legit/left35.wav,,,,,9,2,317,22,,,,,,,,,,,,,,,left,0.101517915726,,,,,participant15,28,59.972861173,M,trial,2017_May_29_1231,
,,0.62,"[-2.25, 0]",/sounds/legit/left35.wav,,,,,9,3,318,24,,,,,,,,,,,,,,,right,0.15158200264,,,,,participant15,28,59.972861173,M,trial,2017_May_29_1231,
,,0.36,"[-6.75, 0]",/sounds/legit/left100.wav,,,,,9,4,319,32,,,,,,,,,,,,,,,left,0.118281126022,,,,,participant15,28,59.972861173,M,trial,2017_May_29_1231,
,,0.23,"[-4.5, 0]",/sounds/legit/left70.wav,,,,,9,5,320,26,,,,,,,,,,,,,,,left,0.769450902939,,,,,participant15,28,59.972861173,M,trial,2017_May_29_1231,
,,0.23,"[-2.25, 0]",/sounds/legit/left35.wav,,,,,9,6,321,21,,,,,,,,,,,,,,,left,0.186268091202,,,,,participant15,28,59.972861173,M,trial,2017_May_29_1231,
,,0.36,"[4.5, 0]",/sounds/legit/right70.wav,,,,,9,7,322,12,,,,,,,,,,,,,,,right,0.168203830719,,,,,participant15,28,59.972861173,M,trial,2017_May_29_1231,
,,0.49,"[-6.75, 0]",/sounds/legit/left100.wav,,,,,9,8,323,33,,,,,,,,,,,,,,,left,0.135062217712,,,,,participant15,28,59.972861173,M,trial,2017_May_29_1231,
,,0.36,"[2.25, 0]",/sounds/legit/right35.wav,,,,,9,9,324,7,,,,,,,,,,,,,,,right,0.251938819885,,,,,participant15,28,59.972861173,M,trial,2017_May_29_1231,
,,0.62,"[2.25, 0]",/sounds/legit/right35.wav,,,,,9,10,325,9,,,,,,,,,,,,,,,right,0.101444005966,,,,,participant15,28,59.972861173,M,trial,2017_May_29_1231,
,,0.23,"[0, 0]",/sounds/legit/equal.wav,,,,,9,11,326,1,,,,,,,,,,,,,,,right,0.100553035736,,,,,participant15,28,59.972861173,M,trial,2017_May_29_1231,
,,0.1,"[2.25, 0]",/sounds/legit/right35.wav,,,,,9,12,327,5,,,,,,,,,,,,,,,right,0.151684045792,,,,,participant15,28,59.972861173,M,trial,2017_May_29_1231,
,,0.23,"[4.5, 0]",/sounds/legit/right70.wav,,,,,9,13,328,11,,,,,,,,,,,,,,,right,0.168658018112,,,,,participant15,28,59.972861173,M,trial,2017_May_29_1231,
,,0.62,"[6.75, 0]",/sounds/legit/right100.wav,,,,,9,14,329,19,,,,,,,,,,,,,,,right,0.0015230178833,,,,,participant15,28,59.972861173,M,trial,2017_May_29_1231,
,,0.1,"[4.5, 0]",/sounds/legit/right70.wav,,,,,9,15,330,10,,,,,,,,,,,,,,,right,0.101350069046,,,,,participant15,28,59.972861173,M,trial,2017_May_29_1231,
,,0.62,"[0, 0]",/sounds/legit/equal.wav,,,,,9,16,331,4,,,,,,,,,,,,,,,left,0.152020215988,,,,,participant15,28,59.972861173,M,trial,2017_May_29_1231,
,,0.23,"[6.75, 0]",/sounds/legit/right100.wav,,,,,9,17,332,16,,,,,,,,,,,,,,,right,0.101373910904,,,,,participant15,28,59.972861173,M,trial,2017_May_29_1231,
,,0.49,"[4.5, 0]",/sounds/legit/right70.wav,,,,,9,18,333,13,,,,,,,,,,,,,,,right,0.0849370956421,,,,,participant15,28,59.972861173,M,trial,2017_May_29_1231,
,,0.23,"[2.25, 0]",/sounds/legit/right35.wav,,,,,9,19,334,6,,,,,,,,,,,,,,,right,0.485989809036,,,,,participant15,28,59.972861173,M,trial,2017_May_29_1231,
,,0.49,"[0, 0]",/sounds/legit/equal.wav,,,,,9,20,335,3,,,,,,,,,,,,,,,left,0.502358913422,,,,,participant15,28,59.972861173,M,trial,2017_May_29_1231,
,,0.49,"[2.25, 0]",/sounds/legit/right35.wav,,,,,9,21,336,8,,,,,,,,,,,,,,,right,0.251856088638,,,,,participant15,28,59.972861173,M,trial,2017_May_29_1231,
,,0.49,"[-4.5, 0]",/sounds/legit/left70.wav,,,,,9,22,337,28,,,,,,,,,,,,,,,left,0.134016036987,,,,,participant15,28,59.972861173,M,trial,2017_May_29_1231,
,,0.62,"[4.5, 0]",/sounds/legit/right70.wav,,,,,9,23,338,14,,,,,,,,,,,,,,,right,0.017884016037,,,,,participant15,28,59.972861173,M,trial,2017_May_29_1231,
,,0.62,"[-6.75, 0]",/sounds/legit/left100.wav,,,,,9,24,339,34,,,,,,,,,,,,,,,left,0.235051870346,,,,,participant15,28,59.972861173,M,trial,2017_May_29_1231,
,,0.1,"[-6.75, 0]",/sounds/legit/left100.wav,,,,,9,25,340,30,,,,,,,,,,,,,,,left,0.0346369743347,,,,,participant15,28,59.972861173,M,trial,2017_May_29_1231,
,,0.1,"[-2.25, 0]",/sounds/legit/left35.wav,,,,,9,26,341,20,,,,,,,,,,,,,,,left,0.134746074677,,,,,participant15,28,59.972861173,M,trial,2017_May_29_1231,
,,0.49,"[-2.25, 0]",/sounds/legit/left35.wav,,,,,9,27,342,23,,,,,,,,,,,,,,,right,0.101699829102,,,,,participant15,28,59.972861173,M,trial,2017_May_29_1231,
,,0.1,"[6.75, 0]",/sounds/legit/right100.wav,,,,,9,28,343,15,,,,,,,,,,,,,,,right,0.0350060462952,,,,,participant15,28,59.972861173,M,trial,2017_May_29_1231,
,,0.49,"[6.75, 0]",/sounds/legit/right100.wav,,,,,9,29,344,18,,,,,,,,,,,,,,,right,0.0847859382629,,,,,participant15,28,59.972861173,M,trial,2017_May_29_1231,
,,0.1,"[0, 0]",/sounds/legit/equal.wav,,,,,9,30,345,0,,,,,,,,,,,,,,,right,0.151793956757,,,,,participant15,28,59.972861173,M,trial,2017_May_29_1231,
,,0.62,"[-4.5, 0]",/sounds/legit/left70.wav,,,,,9,31,346,29,,,,,,,,,,,,,,,left,0.168351888657,,,,,participant15,28,59.972861173,M,trial,2017_May_29_1231,
,,0.36,"[-4.5, 0]",/sounds/legit/left70.wav,,,,,9,32,347,27,,,,,,,,,,,,,,,left,0.118062973022,,,,,participant15,28,59.972861173,M,trial,2017_May_29_1231,
,,0.36,"[6.75, 0]",/sounds/legit/right100.wav,,,,,9,33,348,17,,,,,,,,,,,,,,,right,0.0680890083313,,,,,participant15,28,59.972861173,M,trial,2017_May_29_1231,
,,0.1,"[-4.5, 0]",/sounds/legit/left70.wav,,,,,9,34,349,25,,,,,,,,,,,,,,,left,0.0522530078888,,,,,participant15,28,59.972861173,M,trial,2017_May_29_1231,
,,,,,,,,,,,,,,,,,,,,,,,,,,,,,space,10.4744420052,,,participant15,28,59.972861173,M,trial,2017_May_29_1231,
,,0.23,"[0, 0]",/sounds/legit/equal.wav,,,,,,,,,0,0,0,1,,,,,,,,,,,,,,,right,1.22056078911,participant15,28,59.972861173,M,trial,2017_May_29_1231,
,,0.23,"[-2.25, 0]",/sounds/legit/left35.wav,,,,,,,,,0,1,1,21,,,,,,,,,,,,,,,left,0.91992688179,participant15,28,59.972861173,M,trial,2017_May_29_1231,
,,0.62,"[4.5, 0]",/sounds/legit/right70.wav,,,,,,,,,0,2,2,14,,,,,,,,,,,,,,,right,0.236428022385,participant15,28,59.972861173,M,trial,2017_May_29_1231,
,,0.62,"[6.75, 0]",/sounds/legit/right100.wav,,,,,,,,,0,3,3,19,,,,,,,,,,,,,,,right,0.368977069855,participant15,28,59.972861173,M,trial,2017_May_29_1231,
,,0.1,"[4.5, 0]",/sounds/legit/right70.wav,,,,,,,,,0,4,4,10,,,,,,,,,,,,,,,right,0.135070085526,participant15,28,59.972861173,M,trial,2017_May_29_1231,
,,0.62,"[0, 0]",/sounds/legit/equal.wav,,,,,,,,,0,5,5,4,,,,,,,,,,,,,,,right,0.135089159012,participant15,28,59.972861173,M,trial,2017_May_29_1231,
,,0.36,"[4.5, 0]",/sounds/legit/right70.wav,,,,,,,,,0,6,6,12,,,,,,,,,,,,,,,right,0.11855506897,participant15,28,59.972861173,M,trial,2017_May_29_1231,
,,0.1,"[-6.75, 0]",/sounds/legit/left100.wav,,,,,,,,,0,7,7,30,,,,,,,,,,,,,,,left,0.251858949661,participant15,28,59.972861173,M,trial,2017_May_29_1231,
,,0.49,"[-6.75, 0]",/sounds/legit/left100.wav,,,,,,,,,0,8,8,33,,,,,,,,,,,,,,,left,0.134942054749,participant15,28,59.972861173,M,trial,2017_May_29_1231,
,,0.36,"[-4.5, 0]",/sounds/legit/left70.wav,,,,,,,,,0,9,9,27,,,,,,,,,,,,,,,left,0.2686419487,participant15,28,59.972861173,M,trial,2017_May_29_1231,
,,0.49,"[2.25, 0]",/sounds/legit/right35.wav,,,,,,,,,0,10,10,8,,,,,,,,,,,,,,,right,0.368947029114,participant15,28,59.972861173,M,trial,2017_May_29_1231,
,,0.23,"[2.25, 0]",/sounds/legit/right35.wav,,,,,,,,,0,11,11,6,,,,,,,,,,,,,,,right,0.268702983856,participant15,28,59.972861173,M,trial,2017_May_29_1231,
,,0.23,"[-6.75, 0]",/sounds/legit/left100.wav,,,,,,,,,0,12,12,31,,,,,,,,,,,,,,,left,0.168296813965,participant15,28,59.972861173,M,trial,2017_May_29_1231,
,,0.49,"[0, 0]",/sounds/legit/equal.wav,,,,,,,,,0,13,13,3,,,,,,,,,,,,,,,right,0.218294858932,participant15,28,59.972861173,M,trial,2017_May_29_1231,
,,0.36,"[2.25, 0]",/sounds/legit/right35.wav,,,,,,,,,0,14,14,7,,,,,,,,,,,,,,,right,0.20157289505,participant15,28,59.972861173,M,trial,2017_May_29_1231,
,,0.1,"[-2.25, 0]",/sounds/legit/left35.wav,,,,,,,,,0,15,15,20,,,,,,,,,,,,,,,left,0.384669065475,participant15,28,59.972861173,M,trial,2017_May_29_1231,
,,0.49,"[-6.75, 0]",/sounds/legit/left100.wav,,,,,,,,,0,16,16,33,,,,,,,,,,,,,,,left,0.101681947708,participant15,28,59.972861173,M,trial,2017_May_29_1231,
,,0.49,"[-4.5, 0]",/sounds/legit/left70.wav,,,,,,,,,0,17,17,28,,,,,,,,,,,,,,,left,0.151507139206,participant15,28,59.972861173,M,trial,2017_May_29_1231,
,,0.62,"[0, 0]",/sounds/legit/equal.wav,,,,,,,,,0,18,18,4,,,,,,,,,,,,,,,right,0.30188202858,participant15,28,59.972861173,M,trial,2017_May_29_1231,
,,0.36,"[0, 0]",/sounds/legit/equal.wav,,,,,,,,,0,19,19,2,,,,,,,,,,,,,,,right,0.101374149323,participant15,28,59.972861173,M,trial,2017_May_29_1231,
,,0.62,"[-2.25, 0]",/sounds/legit/left35.wav,,,,,,,,,0,20,20,24,,,,,,,,,,,,,,,left,0.151636838913,participant15,28,59.972861173,M,trial,2017_May_29_1231,
,,0.36,"[4.5, 0]",/sounds/legit/right70.wav,,,,,,,,,0,21,21,12,,,,,,,,,,,,,,,right,0.0350379943848,participant15,28,59.972861173,M,trial,2017_May_29_1231,
,,0.1,"[2.25, 0]",/sounds/legit/right35.wav,,,,,,,,,0,22,22,5,,,,,,,,,,,,,,,right,0.652740001678,participant15,28,59.972861173,M,trial,2017_May_29_1231,
,,0.49,"[-4.5, 0]",/sounds/legit/left70.wav,,,,,,,,,0,23,23,28,,,,,,,,,,,,,,,left,0.200700044632,participant15,28,59.972861173,M,trial,2017_May_29_1231,
,,0.62,"[6.75, 0]",/sounds/legit/right100.wav,,,,,,,,,0,24,24,19,,,,,,,,,,,,,,,right,0.235257863998,participant15,28,59.972861173,M,trial,2017_May_29_1231,
,,0.62,"[-2.25, 0]",/sounds/legit/left35.wav,,,,,,,,,0,25,25,24,,,,,,,,,,,,,,,left,0.268659830093,participant15,28,59.972861173,M,trial,2017_May_29_1231,
,,0.49,"[-4.5, 0]",/sounds/legit/left70.wav,,,,,,,,,0,26,26,28,,,,,,,,,,,,,,,left,0.0517740249634,participant15,28,59.972861173,M,trial,2017_May_29_1231,
,,0.49,"[6.75, 0]",/sounds/legit/right100.wav,,,,,,,,,0,27,27,18,,,,,,,,,,,,,,,right,0.602328062057,participant15,28,59.972861173,M,trial,2017_May_29_1231,
,,0.23,"[-2.25, 0]",/sounds/legit/left35.wav,,,,,,,,,0,28,28,21,,,,,,,,,,,,,,,left,0.0683739185333,participant15,28,59.972861173,M,trial,2017_May_29_1231,
,,0.49,"[0, 0]",/sounds/legit/equal.wav,,,,,,,,,0,29,29,3,,,,,,,,,,,,,,,right,0.0682511329651,participant15,28,59.972861173,M,trial,2017_May_29_1231,
,,0.49,"[-2.25, 0]",/sounds/legit/left35.wav,,,,,,,,,0,30,30,23,,,,,,,,,,,,,,,right,0.0345649719238,participant15,28,59.972861173,M,trial,2017_May_29_1231,
,,0.49,"[-6.75, 0]",/sounds/legit/left100.wav,,,,,,,,,0,31,31,33,,,,,,,,,,,,,,,left,2.5047750473,participant15,28,59.972861173,M,trial,2017_May_29_1231,
,,0.23,"[-4.5, 0]",/sounds/legit/left70.wav,,,,,,,,,0,32,32,26,,,,,,,,,,,,,,,left,0.118400812149,participant15,28,59.972861173,M,trial,2017_May_29_1231,
,,0.36,"[-4.5, 0]",/sounds/legit/left70.wav,,,,,,,,,0,33,33,27,,,,,,,,,,,,,,,left,0.151674032211,participant15,28,59.972861173,M,trial,2017_May_29_1231,
,,0.62,"[4.5, 0]",/sounds/legit/right70.wav,,,,,,,,,0,34,34,14,,,,,,,,,,,,,,,right,0.55250787735,participant15,28,59.972861173,M,trial,2017_May_29_1231,
,,0.49,"[2.25, 0]",/sounds/legit/right35.wav,,,,,,,,,1,0,35,8,,,,,,,,,,,,,,,right,0.769971847534,participant15,28,59.972861173,M,trial,2017_May_29_1231,
,,0.36,"[-2.25, 0]",/sounds/legit/left35.wav,,,,,,,,,1,1,36,22,,,,,,,,,,,,,,,left,0.117959022522,participant15,28,59.972861173,M,trial,2017_May_29_1231,
,,0.62,"[6.75, 0]",/sounds/legit/right100.wav,,,,,,,,,1,2,37,19,,,,,,,,,,,,,,,right,0.0681788921356,participant15,28,59.972861173,M,trial,2017_May_29_1231,
,,0.62,"[2.25, 0]",/sounds/legit/right35.wav,,,,,,,,,1,3,38,9,,,,,,,,,,,,,,,right,0.118320941925,participant15,28,59.972861173,M,trial,2017_May_29_1231,
,,0.36,"[-6.75, 0]",/sounds/legit/left100.wav,,,,,,,,,1,4,39,32,,,,,,,,,,,,,,,left,0.168552875519,participant15,28,59.972861173,M,trial,2017_May_29_1231,
,,0.23,"[4.5, 0]",/sounds/legit/right70.wav,,,,,,,,,1,5,40,11,,,,,,,,,,,,,,,right,0.118142127991,participant15,28,59.972861173,M,trial,2017_May_29_1231,
,,0.49,"[-4.5, 0]",/sounds/legit/left70.wav,,,,,,,,,1,6,41,28,,,,,,,,,,,,,,,left,0.251621007919,participant15,28,59.972861173,M,trial,2017_May_29_1231,
,,0.49,"[0, 0]",/sounds/legit/equal.wav,,,,,,,,,1,7,42,3,,,,,,,,,,,,,,,right,0.251927137375,participant15,28,59.972861173,M,trial,2017_May_29_1231,
,,0.62,"[6.75, 0]",/sounds/legit/right100.wav,,,,,,,,,1,8,43,19,,,,,,,,,,,,,,,right,0.0680749416351,participant15,28,59.972861173,M,trial,2017_May_29_1231,
,,0.49,"[-2.25, 0]",/sounds/legit/left35.wav,,,,,,,,,1,9,44,23,,,,,,,,,,,,,,,left,0.185292005539,participant15,28,59.972861173,M,trial,2017_May_29_1231,
,,0.1,"[-6.75, 0]",/sounds/legit/left100.wav,,,,,,,,,1,10,45,30,,,,,,,,,,,,,,,left,0.168227910995,participant15,28,59.972861173,M,trial,2017_May_29_1231,
,,0.36,"[6.75, 0]",/sounds/legit/right100.wav,,,,,,,,,1,11,46,17,,,,,,,,,,,,,,,right,0.21843290329,participant15,28,59.972861173,M,trial,2017_May_29_1231,
,,0.1,"[6.75, 0]",/sounds/legit/right100.wav,,,,,,,,,1,12,47,15,,,,,,,,,,,,,,,right,0.0182318687439,participant15,28,59.972861173,M,trial,2017_May_29_1231,
,,0.1,"[-4.5, 0]",/sounds/legit/left70.wav,,,,,,,,,1,13,48,25,,,,,,,,,,,,,,,left,0.135097980499,participant15,28,59.972861173,M,trial,2017_May_29_1231,
,,0.49,"[6.75, 0]",/sounds/legit/right100.wav,,,,,,,,,1,14,49,18,,,,,,,,,,,,,,,right,0.135246038437,participant15,28,59.972861173,M,trial,2017_May_29_1231,
,,0.62,"[-6.75, 0]",/sounds/legit/left100.wav,,,,,,,,,1,15,50,34,,,,,,,,,,,,,,,left,0.135043859482,participant15,28,59.972861173,M,trial,2017_May_29_1231,
,,0.1,"[2.25, 0]",/sounds/legit/right35.wav,,,,,,,,,1,16,51,5,,,,,,,,,,,,,,,right,0.0684611797333,participant15,28,59.972861173,M,trial,2017_May_29_1231,
,,0.23,"[-4.5, 0]",/sounds/legit/left70.wav,,,,,,,,,1,17,52,26,,,,,,,,,,,,,,,left,0.0848910808563,participant15,28,59.972861173,M,trial,2017_May_29_1231,
,,0.1,"[6.75, 0]",/sounds/legit/right100.wav,,,,,,,,,1,18,53,15,,,,,,,,,,,,,,,right,0.0680449008942,participant15,28,59.972861173,M,trial,2017_May_29_1231,
,,0.23,"[6.75, 0]",/sounds/legit/right100.wav,,,,,,,,,1,19,54,16,,,,,,,,,,,,,,,right,0.0520188808441,participant15,28,59.972861173,M,trial,2017_May_29_1231,
,,0.49,"[-2.25, 0]",/sounds/legit/left35.wav,,,,,,,,,1,20,55,23,,,,,,,,,,,,,,,left,0.0846531391144,participant15,28,59.972861173,M,trial,2017_May_29_1231,
,,0.62,"[-4.5, 0]",/sounds/legit/left70.wav,,,,,,,,,1,21,56,29,,,,,,,,,,,,,,,left,0.0348851680756,participant15,28,59.972861173,M,trial,2017_May_29_1231,
,,0.49,"[-6.75, 0]",/sounds/legit/left100.wav,,,,,,,,,1,22,57,33,,,,,,,,,,,,,,,left,0.118268966675,participant15,28,59.972861173,M,trial,2017_May_29_1231,
,,0.1,"[6.75, 0]",/sounds/legit/right100.wav,,,,,,,,,1,23,58,15,,,,,,,,,,,,,,,right,0.0179049968719,participant15,28,59.972861173,M,trial,2017_May_29_1231,
,,0.36,"[4.5, 0]",/sounds/legit/right70.wav,,,,,,,,,1,24,59,12,,,,,,,,,,,,,,,right,0.11861205101,participant15,28,59.972861173,M,trial,2017_May_29_1231,
,,0.49,"[0, 0]",/sounds/legit/equal.wav,,,,,,,,,1,25,60,3,,,,,,,,,,,,,,,left,0.134792089462,participant15,28,59.972861173,M,trial,2017_May_29_1231,
,,0.23,"[2.25, 0]",/sounds/legit/right35.wav,,,,,,,,,1,26,61,6,,,,,,,,,,,,,,,right,0.619336128235,participant15,28,59.972861173,M,trial,2017_May_29_1231,
,,0.36,"[4.5, 0]",/sounds/legit/right70.wav,,,,,,,,,1,27,62,12,,,,,,,,,,,,,,,right,0.118322849274,participant15,28,59.972861173,M,trial,2017_May_29_1231,
,,0.1,"[4.5, 0]",/sounds/legit/right70.wav,,,,,,,,,1,28,63,10,,,,,,,,,,,,,,,right,0.168705940247,participant15,28,59.972861173,M,trial,2017_May_29_1231,
,,0.36,"[4.5, 0]",/sounds/legit/right70.wav,,,,,,,,,1,29,64,12,,,,,,,,,,,,,,,right,0.168500900269,participant15,28,59.972861173,M,trial,2017_May_29_1231,
,,0.36,"[-6.75, 0]",/sounds/legit/left100.wav,,,,,,,,,1,30,65,32,,,,,,,,,,,,,,,left,0.118220806122,participant15,28,59.972861173,M,trial,2017_May_29_1231,
,,0.62,"[4.5, 0]",/sounds/legit/right70.wav,,,,,,,,,1,31,66,14,,,,,,,,,,,,,,,right,0.13497209549,participant15,28,59.972861173,M,trial,2017_May_29_1231,
,,0.36,"[-4.5, 0]",/sounds/legit/left70.wav,,,,,,,,,1,32,67,27,,,,,,,,,,,,,,,left,0.101514816284,participant15,28,59.972861173,M,trial,2017_May_29_1231,
,,0.1,"[2.25, 0]",/sounds/legit/right35.wav,,,,,,,,,1,33,68,5,,,,,,,,,,,,,,,right,0.11847782135,participant15,28,59.972861173,M,trial,2017_May_29_1231,
,,0.49,"[4.5, 0]",/sounds/legit/right70.wav,,,,,,,,,1,34,69,13,,,,,,,,,,,,,,,right,0.00147819519043,participant15,28,59.972861173,M,trial,2017_May_29_1231,
,,0.49,"[6.75, 0]",/sounds/legit/right100.wav,,,,,,,,,2,0,70,18,,,,,,,,,,,,,,,right,0.0339918136597,participant15,28,59.972861173,M,trial,2017_May_29_1231,
,,0.23,"[-6.75, 0]",/sounds/legit/left100.wav,,,,,,,,,2,1,71,31,,,,,,,,,,,,,,,left,0.101435899734,participant15,28,59.972861173,M,trial,2017_May_29_1231,
,,0.1,"[0, 0]",/sounds/legit/equal.wav,,,,,,,,,2,2,72,0,,,,,,,,,,,,,,,right,0.118489027023,participant15,28,59.972861173,M,trial,2017_May_29_1231,
,,0.62,"[6.75, 0]",/sounds/legit/right100.wav,,,,,,,,,2,3,73,19,,,,,,,,,,,,,,,right,0.0516319274902,participant15,28,59.972861173,M,trial,2017_May_29_1231,
,,0.49,"[-6.75, 0]",/sounds/legit/left100.wav,,,,,,,,,2,4,74,33,,,,,,,,,,,,,,,left,0.0681300163269,participant15,28,59.972861173,M,trial,2017_May_29_1231,
,,0.49,"[2.25, 0]",/sounds/legit/right35.wav,,,,,,,,,2,5,75,8,,,,,,,,,,,,,,,right,0.0681409835815,participant15,28,59.972861173,M,trial,2017_May_29_1231,
,,0.62,"[2.25, 0]",/sounds/legit/right35.wav,,,,,,,,,2,6,76,9,,,,,,,,,,,,,,,right,0.184981107712,participant15,28,59.972861173,M,trial,2017_May_29_1231,
,,0.23,"[4.5, 0]",/sounds/legit/right70.wav,,,,,,,,,2,7,77,11,,,,,,,,,,,,,,,right,0.652523994446,participant15,28,59.972861173,M,trial,2017_May_29_1231,
,,0.1,"[4.5, 0]",/sounds/legit/right70.wav,,,,,,,,,2,8,78,10,,,,,,,,,,,,,,,right,0.569196939468,participant15,28,59.972861173,M,trial,2017_May_29_1231,
,,0.62,"[0, 0]",/sounds/legit/equal.wav,,,,,,,,,2,9,79,4,,,,,,,,,,,,,,,left,0.251633882523,participant15,28,59.972861173,M,trial,2017_May_29_1231,
,,0.23,"[-2.25, 0]",/sounds/legit/left35.wav,,,,,,,,,2,10,80,21,,,,,,,,,,,,,,,left,0.184980154037,participant15,28,59.972861173,M,trial,2017_May_29_1231,
,,0.49,"[-4.5, 0]",/sounds/legit/left70.wav,,,,,,,,,2,11,81,28,,,,,,,,,,,,,,,left,0.0682289600372,participant15,28,59.972861173,M,trial,2017_May_29_1231,
,,0.23,"[2.25, 0]",/sounds/legit/right35.wav,,,,,,,,,2,12,82,6,,,,,,,,,,,,,,,right,0.53583407402,participant15,28,59.972861173,M,trial,2017_May_29_1231,
,,0.49,"[4.5, 0]",/sounds/legit/right70.wav,,,,,,,,,2,13,83,13,,,,,,,,,,,,,,,right,0.285151004791,participant15,28,59.972861173,M,trial,2017_May_29_1231,
,,0.49,"[-2.25, 0]",/sounds/legit/left35.wav,,,,,,,,,2,14,84,23,,,,,,,,,,,,,,,left,0.168526172638,participant15,28,59.972861173,M,trial,2017_May_29_1231,
,,0.1,"[-2.25, 0]",/sounds/legit/left35.wav,,,,,,,,,2,15,85,20,,,,,,,,,,,,,,,left,0.034677028656,participant15,28,59.972861173,M,trial,2017_May_29_1231,
,,0.23,"[-4.5, 0]",/sounds/legit/left70.wav,,,,,,,,,2,16,86,26,,,,,,,,,,,,,,,left,0.302000999451,participant15,28,59.972861173,M,trial,2017_May_29_1231,
,,0.1,"[6.75, 0]",/sounds/legit/right100.wav,,,,,,,,,2,17,87,15,,,,,,,,,,,,,,,right,0.0177631378174,participant15,28,59.972861173,M,trial,2017_May_29_1231,
,,0.36,"[-2.25, 0]",/sounds/legit/left35.wav,,,,,,,,,2,18,88,22,,,,,,,,,,,,,,,left,0.101475000381,participant15,28,59.972861173,M,trial,2017_May_29_1231,
,,0.62,"[6.75, 0]",/sounds/legit/right100.wav,,,,,,,,,2,19,89,19,,,,,,,,,,,,,,,right,0.0513370037079,participant15,28,59.972861173,M,trial,2017_May_29_1231,
,,0.1,"[4.5, 0]",/sounds/legit/right70.wav,,,,,,,,,2,20,90,10,,,,,,,,,,,,,,,right,0.068156003952,participant15,28,59.972861173,M,trial,2017_May_29_1231,
,,0.1,"[6.75, 0]",/sounds/legit/right100.wav,,,,,,,,,2,21,91,15,,,,,,,,,,,,,,,right,0.0350580215454,participant15,28,59.972861173,M,trial,2017_May_29_1231,
,,0.49,"[-2.25, 0]",/sounds/legit/left35.wav,,,,,,,,,2,22,92,23,,,,,,,,,,,,,,,left,0.0847899913788,participant15,28,59.972861173,M,trial,2017_May_29_1231,
,,0.1,"[6.75, 0]",/sounds/legit/right100.wav,,,,,,,,,2,23,93,15,,,,,,,,,,,,,,,right,0.0514409542084,participant15,28,59.972861173,M,trial,2017_May_29_1231,
,,0.1,"[0, 0]",/sounds/legit/equal.wav,,,,,,,,,2,24,94,0,,,,,,,,,,,,,,,left,0.118213891983,participant15,28,59.972861173,M,trial,2017_May_29_1231,
,,0.36,"[4.5, 0]",/sounds/legit/right70.wav,,,,,,,,,2,25,95,12,,,,,,,,,,,,,,,right,0.0346851348877,participant15,28,59.972861173,M,trial,2017_May_29_1231,
,,0.36,"[-6.75, 0]",/sounds/legit/left100.wav,,,,,,,,,2,26,96,32,,,,,,,,,,,,,,,left,0.118150949478,participant15,28,59.972861173,M,trial,2017_May_29_1231,
,,0.23,"[6.75, 0]",/sounds/legit/right100.wav,,,,,,,,,2,27,97,16,,,,,,,,,,,,,,,right,0.101665019989,participant15,28,59.972861173,M,trial,2017_May_29_1231,
,,0.62,"[4.5, 0]",/sounds/legit/right70.wav,,,,,,,,,2,28,98,14,,,,,,,,,,,,,,,right,0.0347390174866,participant15,28,59.972861173,M,trial,2017_May_29_1231,
,,0.62,"[2.25, 0]",/sounds/legit/right35.wav,,,,,,,,,2,29,99,9,,,,,,,,,,,,,,,right,0.118310928345,participant15,28,59.972861173,M,trial,2017_May_29_1231,
,,0.23,"[0, 0]",/sounds/legit/equal.wav,,,,,,,,,2,30,100,1,,,,,,,,,,,,,,,left,0.0514230728149,participant15,28,59.972861173,M,trial,2017_May_29_1231,
,,0.1,"[-2.25, 0]",/sounds/legit/left35.wav,,,,,,,,,2,31,101,20,,,,,,,,,,,,,,,left,0.101458787918,participant15,28,59.972861173,M,trial,2017_May_29_1231,
,,0.23,"[-2.25, 0]",/sounds/legit/left35.wav,,,,,,,,,2,32,102,21,,,,,,,,,,,,,,,left,0.0350060462952,participant15,28,59.972861173,M,trial,2017_May_29_1231,
,,0.36,"[-2.25, 0]",/sounds/legit/left35.wav,,,,,,,,,2,33,103,22,,,,,,,,,,,,,,,left,0.00159907341003,participant15,28,59.972861173,M,trial,2017_May_29_1231,
,,0.23,"[-4.5, 0]",/sounds/legit/left70.wav,,,,,,,,,2,34,104,26,,,,,,,,,,,,,,,left,0.619266033173,participant15,28,59.972861173,M,trial,2017_May_29_1231,
,,0.36,"[2.25, 0]",/sounds/legit/right35.wav,,,,,,,,,3,0,105,7,,,,,,,,,,,,,,,right,0.0848269462585,participant15,28,59.972861173,M,trial,2017_May_29_1231,
,,0.49,"[6.75, 0]",/sounds/legit/right100.wav,,,,,,,,,3,1,106,18,,,,,,,,,,,,,,,right,0.00133395195007,participant15,28,59.972861173,M,trial,2017_May_29_1231,
,,0.49,"[-6.75, 0]",/sounds/legit/left100.wav,,,,,,,,,3,2,107,33,,,,,,,,,,,,,,,left,0.0515651702881,participant15,28,59.972861173,M,trial,2017_May_29_1231,
,,0.23,"[4.5, 0]",/sounds/legit/right70.wav,,,,,,,,,3,3,108,11,,,,,,,,,,,,,,,right,0.0181560516357,participant15,28,59.972861173,M,trial,2017_May_29_1231,
,,0.36,"[-4.5, 0]",/sounds/legit/left70.wav,,,,,,,,,3,4,109,27,,,,,,,,,,,,,,,left,0.0347189903259,participant15,28,59.972861173,M,trial,2017_May_29_1231,
,,0.62,"[2.25, 0]",/sounds/legit/right35.wav,,,,,,,,,3,5,110,9,,,,,,,,,,,,,,,right,0.185389995575,participant15,28,59.972861173,M,trial,2017_May_29_1231,
,,0.1,"[-6.75, 0]",/sounds/legit/left100.wav,,,,,,,,,3,6,111,30,,,,,,,,,,,,,,,left,0.0177481174469,participant15,28,59.972861173,M,trial,2017_May_29_1231,
,,0.62,"[-4.5, 0]",/sounds/legit/left70.wav,,,,,,,,,3,7,112,29,,,,,,,,,,,,,,,left,0.619240045547,participant15,28,59.972861173,M,trial,2017_May_29_1231,
,,0.23,"[-4.5, 0]",/sounds/legit/left70.wav,,,,,,,,,3,8,113,26,,,,,,,,,,,,,,,left,0.0680201053619,participant15,28,59.972861173,M,trial,2017_May_29_1231,
,,0.36,"[-6.75, 0]",/sounds/legit/left100.wav,,,,,,,,,3,9,114,32,,,,,,,,,,,,,,,left,0.0348742008209,participant15,28,59.972861173,M,trial,2017_May_29_1231,
,,0.36,"[2.25, 0]",/sounds/legit/right35.wav,,,,,,,,,3,10,115,7,,,,,,,,,,,,,,,right,0.0514571666718,participant15,28,59.972861173,M,trial,2017_May_29_1231,
,,0.49,"[4.5, 0]",/sounds/legit/right70.wav,,,,,,,,,3,11,116,13,,,,,,,,,,,,,,,right,0.00141501426697,participant15,28,59.972861173,M,trial,2017_May_29_1231,
,,0.36,"[2.25, 0]",/sounds/legit/right35.wav,,,,,,,,,3,12,117,7,,,,,,,,,,,,,,,right,0.100648880005,participant15,28,59.972861173,M,trial,2017_May_29_1231,
,,0.23,"[6.75, 0]",/sounds/legit/right100.wav,,,,,,,,,3,13,118,16,,,,,,,,,,,,,,,right,0.0516619682312,participant15,28,59.972861173,M,trial,2017_May_29_1231,
,,0.49,"[-2.25, 0]",/sounds/legit/left35.wav,,,,,,,,,3,14,119,23,,,,,,,,,,,,,,,left,0.0848410129547,participant15,28,59.972861173,M,trial,2017_May_29_1231,
,,0.62,"[4.5, 0]",/sounds/legit/right70.wav,,,,,,,,,3,15,120,14,,,,,,,,,,,,,,,right,0.0515959262848,participant15,28,59.972861173,M,trial,2017_May_29_1231,
,,0.1,"[-4.5, 0]",/sounds/legit/left70.wav,,,,,,,,,3,16,121,25,,,,,,,,,,,,,,,left,0.0515978336334,participant15,28,59.972861173,M,trial,2017_May_29_1231,
,,0.62,"[2.25, 0]",/sounds/legit/right35.wav,,,,,,,,,3,17,122,9,,,,,,,,,,,,,,,right,0.00145888328552,participant15,28,59.972861173,M,trial,2017_May_29_1231,
,,0.62,"[-2.25, 0]",/sounds/legit/left35.wav,,,,,,,,,3,18,123,24,,,,,,,,,,,,,,,left,0.619735002518,participant15,28,59.972861173,M,trial,2017_May_29_1231,
,,0.23,"[6.75, 0]",/sounds/legit/right100.wav,,,,,,,,,3,19,124,16,,,,,,,,,,,,,,,right,0.0180377960205,participant15,28,59.972861173,M,trial,2017_May_29_1231,
,,0.62,"[-2.25, 0]",/sounds/legit/left35.wav,,,,,,,,,3,20,125,24,,,,,,,,,,,,,,,left,0.0182797908783,participant15,28,59.972861173,M,trial,2017_May_29_1231,
,,0.1,"[0, 0]",/sounds/legit/equal.wav,,,,,,,,,3,21,126,0,,,,,,,,,,,,,,,right,0.00171899795532,participant15,28,59.972861173,M,trial,2017_May_29_1231,
,,0.62,"[6.75, 0]",/sounds/legit/right100.wav,,,,,,,,,3,22,127,19,,,,,,,,,,,,,,,right,0.00139188766479,participant15,28,59.972861173,M,trial,2017_May_29_1231,
,,0.1,"[0, 0]",/sounds/legit/equal.wav,,,,,,,,,3,23,128,0,,,,,,,,,,,,,,,right,0.502290964127,participant15,28,59.972861173,M,trial,2017_May_29_1231,
,,0.49,"[-4.5, 0]",/sounds/legit/left70.wav,,,,,,,,,3,24,129,28,,,,,,,,,,,,,,,left,0.151607036591,participant15,28,59.972861173,M,trial,2017_May_29_1231,
,,0.49,"[2.25, 0]",/sounds/legit/right35.wav,,,,,,,,,3,25,130,8,,,,,,,,,,,,,,,left,0.502367019653,participant15,28,59.972861173,M,trial,2017_May_29_1231,
,,0.23,"[2.25, 0]",/sounds/legit/right35.wav,,,,,,,,,3,26,131,6,,,,,,,,,,,,,,,right,0.134768009186,participant15,28,59.972861173,M,trial,2017_May_29_1231,
,,0.36,"[-4.5, 0]",/sounds/legit/left70.wav,,,,,,,,,3,27,132,27,,,,,,,,,,,,,,,left,0.0347468852997,participant15,28,59.972861173,M,trial,2017_May_29_1231,
,,0.23,"[-2.25, 0]",/sounds/legit/left35.wav,,,,,,,,,3,28,133,21,,,,,,,,,,,,,,,left,0.619369029999,participant15,28,59.972861173,M,trial,2017_May_29_1231,
,,0.49,"[4.5, 0]",/sounds/legit/right70.wav,,,,,,,,,3,29,134,13,,,,,,,,,,,,,,,right,0.586146116257,participant15,28,59.972861173,M,trial,2017_May_29_1231,
,,0.36,"[-6.75, 0]",/sounds/legit/left100.wav,,,,,,,,,3,30,135,32,,,,,,,,,,,,,,,left,0.118530035019,participant15,28,59.972861173,M,trial,2017_May_29_1231,
,,0.1,"[-2.25, 0]",/sounds/legit/left35.wav,,,,,,,,,3,31,136,20,,,,,,,,,,,,,,,left,0.0180351734161,participant15,28,59.972861173,M,trial,2017_May_29_1231,
,,0.36,"[2.25, 0]",/sounds/legit/right35.wav,,,,,,,,,3,32,137,7,,,,,,,,,,,,,,,right,0.135016202927,participant15,28,59.972861173,M,trial,2017_May_29_1231,
,,0.36,"[4.5, 0]",/sounds/legit/right70.wav,,,,,,,,,3,33,138,12,,,,,,,,,,,,,,,right,0.0182271003723,participant15,28,59.972861173,M,trial,2017_May_29_1231,
,,0.1,"[2.25, 0]",/sounds/legit/right35.wav,,,,,,,,,3,34,139,5,,,,,,,,,,,,,,,right,0.118210077286,participant15,28,59.972861173,M,trial,2017_May_29_1231,
,,0.1,"[-4.5, 0]",/sounds/legit/left70.wav,,,,,,,,,4,0,140,25,,,,,,,,,,,,,,,left,0.0514709949493,participant15,28,59.972861173,M,trial,2017_May_29_1231,
,,0.1,"[2.25, 0]",/sounds/legit/right35.wav,,,,,,,,,4,1,141,5,,,,,,,,,,,,,,,left,0.251837015152,participant15,28,59.972861173,M,trial,2017_May_29_1231,
,,0.1,"[0, 0]",/sounds/legit/equal.wav,,,,,,,,,4,2,142,0,,,,,,,,,,,,,,,right,0.469159841537,participant15,28,59.972861173,M,trial,2017_May_29_1231,
,,0.1,"[0, 0]",/sounds/legit/equal.wav,,,,,,,,,4,3,143,0,,,,,,,,,,,,,,,right,0.569145917892,participant15,28,59.972861173,M,trial,2017_May_29_1231,
,,0.49,"[4.5, 0]",/sounds/legit/right70.wav,,,,,,,,,4,4,144,13,,,,,,,,,,,,,,,right,0.2350730896,participant15,28,59.972861173,M,trial,2017_May_29_1231,
,,0.1,"[-6.75, 0]",/sounds/legit/left100.wav,,,,,,,,,4,5,145,30,,,,,,,,,,,,,,,left,0.101494073868,participant15,28,59.972861173,M,trial,2017_May_29_1231,
,,0.23,"[4.5, 0]",/sounds/legit/right70.wav,,,,,,,,,4,6,146,11,,,,,,,,,,,,,,,right,0.00130987167358,participant15,28,59.972861173,M,trial,2017_May_29_1231,
,,0.62,"[-4.5, 0]",/sounds/legit/left70.wav,,,,,,,,,4,7,147,29,,,,,,,,,,,,,,,left,0.151875019073,participant15,28,59.972861173,M,trial,2017_May_29_1231,
,,0.23,"[-2.25, 0]",/sounds/legit/left35.wav,,,,,,,,,4,8,148,21,,,,,,,,,,,,,,,left,0.168314933777,participant15,28,59.972861173,M,trial,2017_May_29_1231,
,,0.1,"[0, 0]",/sounds/legit/equal.wav,,,,,,,,,4,9,149,0,,,,,,,,,,,,,,,right,0.135010957718,participant15,28,59.972861173,M,trial,2017_May_29_1231,
,,0.23,"[0, 0]",/sounds/legit/equal.wav,,,,,,,,,4,10,150,1,,,,,,,,,,,,,,,right,0.569415092468,participant15,28,59.972861173,M,trial,2017_May_29_1231,
,,0.23,"[4.5, 0]",/sounds/legit/right70.wav,,,,,,,,,4,11,151,11,,,,,,,,,,,,,,,right,0.101409912109,participant15,28,59.972861173,M,trial,2017_May_29_1231,
,,0.49,"[6.75, 0]",/sounds/legit/right100.wav,,,,,,,,,4,12,152,18,,,,,,,,,,,,,,,right,0.285087108612,participant15,28,59.972861173,M,trial,2017_May_29_1231,
,,0.36,"[6.75, 0]",/sounds/legit/right100.wav,,,,,,,,,4,13,153,17,,,,,,,,,,,,,,,right,0.0514950752258,participant15,28,59.972861173,M,trial,2017_May_29_1231,
,,0.49,"[-6.75, 0]",/sounds/legit/left100.wav,,,,,,,,,4,14,154,33,,,,,,,,,,,,,,,left,0.0178101062775,participant15,28,59.972861173,M,trial,2017_May_29_1231,
,,0.62,"[0, 0]",/sounds/legit/equal.wav,,,,,,,,,4,15,155,4,,,,,,,,,,,,,,,left,0.151875019073,participant15,28,59.972861173,M,trial,2017_May_29_1231,
,,0.23,"[-6.75, 0]",/sounds/legit/left100.wav,,,,,,,,,4,16,156,31,,,,,,,,,,,,,,,left,0.00145888328552,participant15,28,59.972861173,M,trial,2017_May_29_1231,
,,0.62,"[-4.5, 0]",/sounds/legit/left70.wav,,,,,,,,,4,17,157,29,,,,,,,,,,,,,,,left,0.318497180939,participant15,28,59.972861173,M,trial,2017_May_29_1231,
,,0.49,"[2.25, 0]",/sounds/legit/right35.wav,,,,,,,,,4,18,158,8,,,,,,,,,,,,,,,right,0.185010194778,participant15,28,59.972861173,M,trial,2017_May_29_1231,
,,0.49,"[4.5, 0]",/sounds/legit/right70.wav,,,,,,,,,4,19,159,13,,,,,,,,,,,,,,,right,0.134786128998,participant15,28,59.972861173,M,trial,2017_May_29_1231,
,,0.23,"[0, 0]",/sounds/legit/equal.wav,,,,,,,,,4,20,160,1,,,,,,,,,,,,,,,right,0.16858291626,participant15,28,59.972861173,M,trial,2017_May_29_1231,
,,0.62,"[6.75, 0]",/sounds/legit/right100.wav,,,,,,,,,4,21,161,19,,,,,,,,,,,,,,,right,0.0847878456116,participant15,28,59.972861173,M,trial,2017_May_29_1231,
,,0.23,"[0, 0]",/sounds/legit/equal.wav,,,,,,,,,4,22,162,1,,,,,,,,,,,,,,,right,0.0846879482269,participant15,28,59.972861173,M,trial,2017_May_29_1231,
,,0.36,"[-4.5, 0]",/sounds/legit/left70.wav,,,,,,,,,4,23,163,27,,,,,,,,,,,,,,,left,0.0849561691284,participant15,28,59.972861173,M,trial,2017_May_29_1231,
,,0.49,"[6.75, 0]",/sounds/legit/right100.wav,,,,,,,,,4,24,164,18,,,,,,,,,,,,,,,right,0.519016027451,participant15,28,59.972861173,M,trial,2017_May_29_1231,
,,0.62,"[-4.5, 0]",/sounds/legit/left70.wav,,,,,,,,,4,25,165,29,,,,,,,,,,,,,,,left,0.218617916107,participant15,28,59.972861173,M,trial,2017_May_29_1231,
,,0.36,"[-2.25, 0]",/sounds/legit/left35.wav,,,,,,,,,4,26,166,22,,,,,,,,,,,,,,,left,0.15164899826,participant15,28,59.972861173,M,trial,2017_May_29_1231,
,,0.62,"[0, 0]",/sounds/legit/equal.wav,,,,,,,,,4,27,167,4,,,,,,,,,,,,,,,left,0.151586055756,participant15,28,59.972861173,M,trial,2017_May_29_1231,
,,0.23,"[4.5, 0]",/sounds/legit/right70.wav,,,,,,,,,4,28,168,11,,,,,,,,,,,,,,,right,0.101665019989,participant15,28,59.972861173,M,trial,2017_May_29_1231,
,,0.23,"[0, 0]",/sounds/legit/equal.wav,,,,,,,,,4,29,169,1,,,,,,,,,,,,,,,left,0.0847389698029,participant15,28,59.972861173,M,trial,2017_May_29_1231,
,,0.62,"[-6.75, 0]",/sounds/legit/left100.wav,,,,,,,,,4,30,170,34,,,,,,,,,,,,,,,left,0.0515809059143,participant15,28,59.972861173,M,trial,2017_May_29_1231,
,,0.49,"[-4.5, 0]",/sounds/legit/left70.wav,,,,,,,,,4,31,171,28,,,,,,,,,,,,,,,left,0.101363182068,participant15,28,59.972861173,M,trial,2017_May_29_1231,
,,0.1,"[-4.5, 0]",/sounds/legit/left70.wav,,,,,,,,,4,32,172,25,,,,,,,,,,,,,,,left,0.00130605697632,participant15,28,59.972861173,M,trial,2017_May_29_1231,
,,0.23,"[-6.75, 0]",/sounds/legit/left100.wav,,,,,,,,,4,33,173,31,,,,,,,,,,,,,,,left,0.0181441307068,participant15,28,59.972861173,M,trial,2017_May_29_1231,
,,0.23,"[-4.5, 0]",/sounds/legit/left70.wav,,,,,,,,,4,34,174,26,,,,,,,,,,,,,,,left,0.101483106613,participant15,28,59.972861173,M,trial,2017_May_29_1231,
,,0.36,"[-4.5, 0]",/sounds/legit/left70.wav,,,,,,,,,5,0,175,27,,,,,,,,,,,,,,,left,0.00126099586487,participant15,28,59.972861173,M,trial,2017_May_29_1231,
,,0.23,"[-2.25, 0]",/sounds/legit/left35.wav,,,,,,,,,5,1,176,21,,,,,,,,,,,,,,,left,0.0179531574249,participant15,28,59.972861173,M,trial,2017_May_29_1231,
,,0.49,"[0, 0]",/sounds/legit/equal.wav,,,,,,,,,5,2,177,3,,,,,,,,,,,,,,,left,0.0849900245667,participant15,28,59.972861173,M,trial,2017_May_29_1231,
,,0.1,"[-2.25, 0]",/sounds/legit/left35.wav,,,,,,,,,5,3,178,20,,,,,,,,,,,,,,,left,0.268706083298,participant15,28,59.972861173,M,trial,2017_May_29_1231,
,,0.62,"[4.5, 0]",/sounds/legit/right70.wav,,,,,,,,,5,4,179,14,,,,,,,,,,,,,,,right,0.101589202881,participant15,28,59.972861173,M,trial,2017_May_29_1231,
,,0.62,"[-6.75, 0]",/sounds/legit/left100.wav,,,,,,,,,5,5,180,34,,,,,,,,,,,,,,,left,0.101702928543,participant15,28,59.972861173,M,trial,2017_May_29_1231,
,,0.23,"[-6.75, 0]",/sounds/legit/left100.wav,,,,,,,,,5,6,181,31,,,,,,,,,,,,,,,left,0.0345900058746,participant15,28,59.972861173,M,trial,2017_May_29_1231,
,,0.49,"[-6.75, 0]",/sounds/legit/left100.wav,,,,,,,,,5,7,182,33,,,,,,,,,,,,,,,left,0.569211006165,participant15,28,59.972861173,M,trial,2017_May_29_1231,
,,0.23,"[-6.75, 0]",/sounds/legit/left100.wav,,,,,,,,,5,8,183,31,,,,,,,,,,,,,,,left,0.151628017426,participant15,28,59.972861173,M,trial,2017_May_29_1231,
,,0.1,"[-6.75, 0]",/sounds/legit/left100.wav,,,,,,,,,5,9,184,30,,,,,,,,,,,,,,,left,0.101561069489,participant15,28,59.972861173,M,trial,2017_May_29_1231,
,,0.49,"[0, 0]",/sounds/legit/equal.wav,,,,,,,,,5,10,185,3,,,,,,,,,,,,,,,right,0.185001134872,participant15,28,59.972861173,M,trial,2017_May_29_1231,
,,0.62,"[4.5, 0]",/sounds/legit/right70.wav,,,,,,,,,5,11,186,14,,,,,,,,,,,,,,,right,0.535869836807,participant15,28,59.972861173,M,trial,2017_May_29_1231,
,,0.62,"[2.25, 0]",/sounds/legit/right35.wav,,,,,,,,,5,12,187,9,,,,,,,,,,,,,,,right,0.0182271003723,participant15,28,59.972861173,M,trial,2017_May_29_1231,
,,0.23,"[6.75, 0]",/sounds/legit/right100.wav,,,,,,,,,5,13,188,16,,,,,,,,,,,,,,,right,0.418960094452,participant15,28,59.972861173,M,trial,2017_May_29_1231,
,,0.49,"[-2.25, 0]",/sounds/legit/left35.wav,,,,,,,,,5,14,189,23,,,,,,,,,,,,,,,left,0.485930919647,participant15,28,59.972861173,M,trial,2017_May_29_1231,
,,0.49,"[2.25, 0]",/sounds/legit/right35.wav,,,,,,,,,5,15,190,8,,,,,,,,,,,,,,,right,0.101661920547,participant15,28,59.972861173,M,trial,2017_May_29_1231,
,,0.36,"[4.5, 0]",/sounds/legit/right70.wav,,,,,,,,,5,16,191,12,,,,,,,,,,,,,,,right,0.285122871399,participant15,28,59.972861173,M,trial,2017_May_29_1231,
,,0.36,"[6.75, 0]",/sounds/legit/right100.wav,,,,,,,,,5,17,192,17,,,,,,,,,,,,,,,right,0.0682499408722,participant15,28,59.972861173,M,trial,2017_May_29_1231,
,,0.62,"[4.5, 0]",/sounds/legit/right70.wav,,,,,,,,,5,18,193,14,,,,,,,,,,,,,,,right,0.0682880878448,participant15,28,59.972861173,M,trial,2017_May_29_1231,
,,0.49,"[-2.25, 0]",/sounds/legit/left35.wav,,,,,,,,,5,19,194,23,,,,,,,,,,,,,,,right,0.135010957718,participant15,28,59.972861173,M,trial,2017_May_29_1231,
,,0.23,"[0, 0]",/sounds/legit/equal.wav,,,,,,,,,5,20,195,1,,,,,,,,,,,,,,,right,0.0682179927826,participant15,28,59.972861173,M,trial,2017_May_29_1231,
,,0.62,"[6.75, 0]",/sounds/legit/right100.wav,,,,,,,,,5,21,196,19,,,,,,,,,,,,,,,right,0.0516550540924,participant15,28,59.972861173,M,trial,2017_May_29_1231,
,,0.49,"[2.25, 0]",/sounds/legit/right35.wav,,,,,,,,,5,22,197,8,,,,,,,,,,,,,,,right,0.233976125717,participant15,28,59.972861173,M,trial,2017_May_29_1231,
,,0.36,"[0, 0]",/sounds/legit/equal.wav,,,,,,,,,5,23,198,2,,,,,,,,,,,,,,,right,0.201514005661,participant15,28,59.972861173,M,trial,2017_May_29_1231,
,,0.1,"[0, 0]",/sounds/legit/equal.wav,,,,,,,,,5,24,199,0,,,,,,,,,,,,,,,right,0.18505191803,participant15,28,59.972861173,M,trial,2017_May_29_1231,
,,0.49,"[0, 0]",/sounds/legit/equal.wav,,,,,,,,,5,25,200,3,,,,,,,,,,,,,,,right,0.118314027786,participant15,28,59.972861173,M,trial,2017_May_29_1231,
,,0.36,"[-2.25, 0]",/sounds/legit/left35.wav,,,,,,,,,5,26,201,22,,,,,,,,,,,,,,,right,0.0180940628052,participant15,28,59.972861173,M,trial,2017_May_29_1231,
,,0.23,"[2.25, 0]",/sounds/legit/right35.wav,,,,,,,,,5,27,202,6,,,,,,,,,,,,,,,right,0.0846679210663,participant15,28,59.972861173,M,trial,2017_May_29_1231,
,,0.1,"[2.25, 0]",/sounds/legit/right35.wav,,,,,,,,,5,28,203,5,,,,,,,,,,,,,,,right,0.135006904602,participant15,28,59.972861173,M,trial,2017_May_29_1231,
,,0.62,"[-6.75, 0]",/sounds/legit/left100.wav,,,,,,,,,5,29,204,34,,,,,,,,,,,,,,,left,0.0506939888,participant15,28,59.972861173,M,trial,2017_May_29_1231,
,,0.62,"[-4.5, 0]",/sounds/legit/left70.wav,,,,,,,,,5,30,205,29,,,,,,,,,,,,,,,left,0.151650905609,participant15,28,59.972861173,M,trial,2017_May_29_1231,
,,0.49,"[4.5, 0]",/sounds/legit/right70.wav,,,,,,,,,5,31,206,13,,,,,,,,,,,,,,,right,0.101792097092,participant15,28,59.972861173,M,trial,2017_May_29_1231,
,,0.23,"[6.75, 0]",/sounds/legit/right100.wav,,,,,,,,,5,32,207,16,,,,,,,,,,,,,,,right,0.0180530548096,participant15,28,59.972861173,M,trial,2017_May_29_1231,
,,0.1,"[2.25, 0]",/sounds/legit/right35.wav,,,,,,,,,5,33,208,5,,,,,,,,,,,,,,,right,0.118143081665,participant15,28,59.972861173,M,trial,2017_May_29_1231,
,,0.62,"[-4.5, 0]",/sounds/legit/left70.wav,,,,,,,,,5,34,209,29,,,,,,,,,,,,,,,left,0.16832113266,participant15,28,59.972861173,M,trial,2017_May_29_1231,
,,0.36,"[-6.75, 0]",/sounds/legit/left100.wav,,,,,,,,,6,0,210,32,,,,,,,,,,,,,,,left,0.201564073563,participant15,28,59.972861173,M,trial,2017_May_29_1231,
,,0.62,"[2.25, 0]",/sounds/legit/right35.wav,,,,,,,,,6,1,211,9,,,,,,,,,,,,,,,right,0.201900005341,participant15,28,59.972861173,M,trial,2017_May_29_1231,
,,0.36,"[-6.75, 0]",/sounds/legit/left100.wav,,,,,,,,,6,2,212,32,,,,,,,,,,,,,,,left,0.0180261135101,participant15,28,59.972861173,M,trial,2017_May_29_1231,
,,0.62,"[4.5, 0]",/sounds/legit/right70.wav,,,,,,,,,6,3,213,14,,,,,,,,,,,,,,,right,0.0347909927368,participant15,28,59.972861173,M,trial,2017_May_29_1231,
,,0.62,"[0, 0]",/sounds/legit/equal.wav,,,,,,,,,6,4,214,4,,,,,,,,,,,,,,,left,0.0850431919098,participant15,28,59.972861173,M,trial,2017_May_29_1231,
,,0.49,"[2.25, 0]",/sounds/legit/right35.wav,,,,,,,,,6,5,215,8,,,,,,,,,,,,,,,right,0.0178768634796,participant15,28,59.972861173,M,trial,2017_May_29_1231,
,,0.62,"[-6.75, 0]",/sounds/legit/left100.wav,,,,,,,,,6,6,216,34,,,,,,,,,,,,,,,left,0.0514078140259,participant15,28,59.972861173,M,trial,2017_May_29_1231,
,,0.49,"[-4.5, 0]",/sounds/legit/left70.wav,,,,,,,,,6,7,217,28,,,,,,,,,,,,,,,left,0.00148487091064,participant15,28,59.972861173,M,trial,2017_May_29_1231,
,,0.36,"[-4.5, 0]",/sounds/legit/left70.wav,,,,,,,,,6,8,218,27,,,,,,,,,,,,,,,left,0.652629137039,participant15,28,59.972861173,M,trial,2017_May_29_1231,
,,0.49,"[-2.25, 0]",/sounds/legit/left35.wav,,,,,,,,,6,9,219,23,,,,,,,,,,,,,,,left,0.11815905571,participant15,28,59.972861173,M,trial,2017_May_29_1231,
,,0.36,"[0, 0]",/sounds/legit/equal.wav,,,,,,,,,6,10,220,2,,,,,,,,,,,,,,,right,0.084972858429,participant15,28,59.972861173,M,trial,2017_May_29_1231,
,,0.36,"[-4.5, 0]",/sounds/legit/left70.wav,,,,,,,,,6,11,221,27,,,,,,,,,,,,,,,left,0.168366909027,participant15,28,59.972861173,M,trial,2017_May_29_1231,
,,0.36,"[-2.25, 0]",/sounds/legit/left35.wav,,,,,,,,,6,12,222,22,,,,,,,,,,,,,,,left,0.218654155731,participant15,28,59.972861173,M,trial,2017_May_29_1231,
,,0.62,"[4.5, 0]",/sounds/legit/right70.wav,,,,,,,,,6,13,223,14,,,,,,,,,,,,,,,right,0.0512211322784,participant15,28,59.972861173,M,trial,2017_May_29_1231,
,,0.36,"[2.25, 0]",/sounds/legit/right35.wav,,,,,,,,,6,14,224,7,,,,,,,,,,,,,,,right,0.0852029323578,participant15,28,59.972861173,M,trial,2017_May_29_1231,
,,0.23,"[4.5, 0]",/sounds/legit/right70.wav,,,,,,,,,6,15,225,11,,,,,,,,,,,,,,,right,0.118216991425,participant15,28,59.972861173,M,trial,2017_May_29_1231,
