path,name,noise,location,correspondingAudio,audiotrials.thisRepN,audiotrials.thisTrialN,audiotrials.thisN,audiotrials.thisIndex,visualTrials.thisRepN,visualTrials.thisTrialN,visualTrials.thisN,visualTrials.thisIndex,combinedTrials.thisRepN,combinedTrials.thisTrialN,combinedTrials.thisN,combinedTrials.thisIndex,WelcomeKey.keys,WelcomeKey.rt,key_resp_2.keys,key_resp_2.rt,AudioInstrAccept.keys,AudioInstrAccept.rt,LeftorRight.keys,LeftorRight.rt,VisualBlock.keys,VisualBlock.rt,VisualDecision.keys,VisualDecision.rt,CombinedAccept.keys,CombinedAccept.rt,CombComparisonResponse.keys,CombComparisonResponse.rt,participant,age,frameRate,sex,expName,date,
,,,,,,,,,,,,,,,,,space,74.9640581608,,,,,,,,,,,,,,,participant14,24,59.6985966011,M,trial,2017_May_28_1755,
,,,,,,,,,,,,,,,,,,,space,19.2596530914,,,,,,,,,,,,,participant14,24,59.6985966011,M,trial,2017_May_28_1755,
,,,,,,,,,,,,,,,,,,,,,space,15.9191658497,,,,,,,,,,,participant14,24,59.6985966011,M,trial,2017_May_28_1755,
/sounds/legit/left100.wav,left100,,,,0,0,0,0,,,,,,,,,,,,,,,left,10.8912391663,,,,,,,,,participant14,24,59.6985966011,M,trial,2017_May_28_1755,
/sounds/legit/left35.wav,left30,,,,0,1,1,2,,,,,,,,,,,,,,,left,0.686053037643,,,,,,,,,participant14,24,59.6985966011,M,trial,2017_May_28_1755,
/sounds/legit/right70.wav,right60,,,,0,2,2,4,,,,,,,,,,,,,,,right,0.251886844635,,,,,,,,,participant14,24,59.6985966011,M,trial,2017_May_28_1755,
/sounds/legit/right35.wav,right30,,,,0,3,3,3,,,,,,,,,,,,,,,right,0.602388858795,,,,,,,,,participant14,24,59.6985966011,M,trial,2017_May_28_1755,
/sounds/legit/right100.wav,right100,,,,0,4,4,5,,,,,,,,,,,,,,,right,0.470263004303,,,,,,,,,participant14,24,59.6985966011,M,trial,2017_May_28_1755,
/sounds/legit/equal.wav,equal,,,,0,5,5,6,,,,,,,,,,,,,,,left,0.669537782669,,,,,,,,,participant14,24,59.6985966011,M,trial,2017_May_28_1755,
/sounds/legit/left70.wav,left60,,,,0,6,6,1,,,,,,,,,,,,,,,left,0.435528993607,,,,,,,,,participant14,24,59.6985966011,M,trial,2017_May_28_1755,
/sounds/legit/equal.wav,equal,,,,1,0,7,6,,,,,,,,,,,,,,,left,0.769734144211,,,,,,,,,participant14,24,59.6985966011,M,trial,2017_May_28_1755,
/sounds/legit/left100.wav,left100,,,,1,1,8,0,,,,,,,,,,,,,,,left,0.352206945419,,,,,,,,,participant14,24,59.6985966011,M,trial,2017_May_28_1755,
/sounds/legit/right100.wav,right100,,,,1,2,9,5,,,,,,,,,,,,,,,right,0.234894037247,,,,,,,,,participant14,24,59.6985966011,M,trial,2017_May_28_1755,
/sounds/legit/right70.wav,right60,,,,1,3,10,4,,,,,,,,,,,,,,,right,0.18483710289,,,,,,,,,participant14,24,59.6985966011,M,trial,2017_May_28_1755,
/sounds/legit/left35.wav,left30,,,,1,4,11,2,,,,,,,,,,,,,,,left,0.285011053085,,,,,,,,,participant14,24,59.6985966011,M,trial,2017_May_28_1755,
/sounds/legit/left70.wav,left60,,,,1,5,12,1,,,,,,,,,,,,,,,left,0.21857213974,,,,,,,,,participant14,24,59.6985966011,M,trial,2017_May_28_1755,
/sounds/legit/right35.wav,right30,,,,1,6,13,3,,,,,,,,,,,,,,,right,0.1848320961,,,,,,,,,participant14,24,59.6985966011,M,trial,2017_May_28_1755,
/sounds/legit/left35.wav,left30,,,,2,0,14,2,,,,,,,,,,,,,,,left,0.251560211182,,,,,,,,,participant14,24,59.6985966011,M,trial,2017_May_28_1755,
/sounds/legit/equal.wav,equal,,,,2,1,15,6,,,,,,,,,,,,,,,left,0.301950931549,,,,,,,,,participant14,24,59.6985966011,M,trial,2017_May_28_1755,
/sounds/legit/left70.wav,left60,,,,2,2,16,1,,,,,,,,,,,,,,,left,0.202023029327,,,,,,,,,participant14,24,59.6985966011,M,trial,2017_May_28_1755,
/sounds/legit/right100.wav,right100,,,,2,3,17,5,,,,,,,,,,,,,,,right,0.31853222847,,,,,,,,,participant14,24,59.6985966011,M,trial,2017_May_28_1755,
/sounds/legit/right35.wav,right30,,,,2,4,18,3,,,,,,,,,,,,,,,right,0.335407018661,,,,,,,,,participant14,24,59.6985966011,M,trial,2017_May_28_1755,
/sounds/legit/right70.wav,right60,,,,2,5,19,4,,,,,,,,,,,,,,,right,0.31889796257,,,,,,,,,participant14,24,59.6985966011,M,trial,2017_May_28_1755,
/sounds/legit/left100.wav,left100,,,,2,6,20,0,,,,,,,,,,,,,,,left,0.218421936035,,,,,,,,,participant14,24,59.6985966011,M,trial,2017_May_28_1755,
/sounds/legit/equal.wav,equal,,,,3,0,21,6,,,,,,,,,,,,,,,left,0.335275888443,,,,,,,,,participant14,24,59.6985966011,M,trial,2017_May_28_1755,
/sounds/legit/right35.wav,right30,,,,3,1,22,3,,,,,,,,,,,,,,,right,0.335542917252,,,,,,,,,participant14,24,59.6985966011,M,trial,2017_May_28_1755,
/sounds/legit/left35.wav,left30,,,,3,2,23,2,,,,,,,,,,,,,,,left,0.35201883316,,,,,,,,,participant14,24,59.6985966011,M,trial,2017_May_28_1755,
/sounds/legit/right100.wav,right100,,,,3,3,24,5,,,,,,,,,,,,,,,right,0.251632928848,,,,,,,,,participant14,24,59.6985966011,M,trial,2017_May_28_1755,
/sounds/legit/left70.wav,left60,,,,3,4,25,1,,,,,,,,,,,,,,,left,0.335302114487,,,,,,,,,participant14,24,59.6985966011,M,trial,2017_May_28_1755,
/sounds/legit/left100.wav,left100,,,,3,5,26,0,,,,,,,,,,,,,,,left,0.235281944275,,,,,,,,,participant14,24,59.6985966011,M,trial,2017_May_28_1755,
/sounds/legit/right70.wav,right60,,,,3,6,27,4,,,,,,,,,,,,,,,right,0.168212175369,,,,,,,,,participant14,24,59.6985966011,M,trial,2017_May_28_1755,
/sounds/legit/equal.wav,equal,,,,4,0,28,6,,,,,,,,,,,,,,,left,0.201701164246,,,,,,,,,participant14,24,59.6985966011,M,trial,2017_May_28_1755,
/sounds/legit/right70.wav,right60,,,,4,1,29,4,,,,,,,,,,,,,,,right,0.168300151825,,,,,,,,,participant14,24,59.6985966011,M,trial,2017_May_28_1755,
/sounds/legit/left35.wav,left30,,,,4,2,30,2,,,,,,,,,,,,,,,left,0.217522859573,,,,,,,,,participant14,24,59.6985966011,M,trial,2017_May_28_1755,
/sounds/legit/left100.wav,left100,,,,4,3,31,0,,,,,,,,,,,,,,,left,0.101522922516,,,,,,,,,participant14,24,59.6985966011,M,trial,2017_May_28_1755,
/sounds/legit/right100.wav,right100,,,,4,4,32,5,,,,,,,,,,,,,,,right,0.168330907822,,,,,,,,,participant14,24,59.6985966011,M,trial,2017_May_28_1755,
/sounds/legit/right35.wav,right30,,,,4,5,33,3,,,,,,,,,,,,,,,right,0.251990795135,,,,,,,,,participant14,24,59.6985966011,M,trial,2017_May_28_1755,
/sounds/legit/left70.wav,left60,,,,4,6,34,1,,,,,,,,,,,,,,,left,0.218605995178,,,,,,,,,participant14,24,59.6985966011,M,trial,2017_May_28_1755,
/sounds/legit/equal.wav,equal,,,,5,0,35,6,,,,,,,,,,,,,,,left,0.151042938232,,,,,,,,,participant14,24,59.6985966011,M,trial,2017_May_28_1755,
/sounds/legit/left100.wav,left100,,,,5,1,36,0,,,,,,,,,,,,,,,left,0.168373823166,,,,,,,,,participant14,24,59.6985966011,M,trial,2017_May_28_1755,
/sounds/legit/left70.wav,left60,,,,5,2,37,1,,,,,,,,,,,,,,,left,0.301820993423,,,,,,,,,participant14,24,59.6985966011,M,trial,2017_May_28_1755,
/sounds/legit/right100.wav,right100,,,,5,3,38,5,,,,,,,,,,,,,,,right,0.251887083054,,,,,,,,,participant14,24,59.6985966011,M,trial,2017_May_28_1755,
/sounds/legit/left35.wav,left30,,,,5,4,39,2,,,,,,,,,,,,,,,left,0.268453836441,,,,,,,,,participant14,24,59.6985966011,M,trial,2017_May_28_1755,
/sounds/legit/right70.wav,right60,,,,5,5,40,4,,,,,,,,,,,,,,,right,0.235028028488,,,,,,,,,participant14,24,59.6985966011,M,trial,2017_May_28_1755,
/sounds/legit/right35.wav,right30,,,,5,6,41,3,,,,,,,,,,,,,,,right,0.134953022003,,,,,,,,,participant14,24,59.6985966011,M,trial,2017_May_28_1755,
/sounds/legit/right100.wav,right100,,,,6,0,42,5,,,,,,,,,,,,,,,right,0.585061788559,,,,,,,,,participant14,24,59.6985966011,M,trial,2017_May_28_1755,
/sounds/legit/left100.wav,left100,,,,6,1,43,0,,,,,,,,,,,,,,,left,0.268609046936,,,,,,,,,participant14,24,59.6985966011,M,trial,2017_May_28_1755,
/sounds/legit/left35.wav,left30,,,,6,2,44,2,,,,,,,,,,,,,,,left,0.401189088821,,,,,,,,,participant14,24,59.6985966011,M,trial,2017_May_28_1755,
/sounds/legit/right35.wav,right30,,,,6,3,45,3,,,,,,,,,,,,,,,right,0.318832874298,,,,,,,,,participant14,24,59.6985966011,M,trial,2017_May_28_1755,
/sounds/legit/left70.wav,left60,,,,6,4,46,1,,,,,,,,,,,,,,,left,0.151690006256,,,,,,,,,participant14,24,59.6985966011,M,trial,2017_May_28_1755,
/sounds/legit/equal.wav,equal,,,,6,5,47,6,,,,,,,,,,,,,,,left,0.502301931381,,,,,,,,,participant14,24,59.6985966011,M,trial,2017_May_28_1755,
/sounds/legit/right70.wav,right60,,,,6,6,48,4,,,,,,,,,,,,,,,right,0.184915065765,,,,,,,,,participant14,24,59.6985966011,M,trial,2017_May_28_1755,
/sounds/legit/equal.wav,equal,,,,7,0,49,6,,,,,,,,,,,,,,,left,0.586108922958,,,,,,,,,participant14,24,59.6985966011,M,trial,2017_May_28_1755,
/sounds/legit/right70.wav,right60,,,,7,1,50,4,,,,,,,,,,,,,,,right,0.151651144028,,,,,,,,,participant14,24,59.6985966011,M,trial,2017_May_28_1755,
/sounds/legit/left70.wav,left60,,,,7,2,51,1,,,,,,,,,,,,,,,left,0.201776981354,,,,,,,,,participant14,24,59.6985966011,M,trial,2017_May_28_1755,
/sounds/legit/right35.wav,right30,,,,7,3,52,3,,,,,,,,,,,,,,,right,0.352015018463,,,,,,,,,participant14,24,59.6985966011,M,trial,2017_May_28_1755,
/sounds/legit/left35.wav,left30,,,,7,4,53,2,,,,,,,,,,,,,,,left,0.419104099274,,,,,,,,,participant14,24,59.6985966011,M,trial,2017_May_28_1755,
/sounds/legit/right100.wav,right100,,,,7,5,54,5,,,,,,,,,,,,,,,right,0.152964115143,,,,,,,,,participant14,24,59.6985966011,M,trial,2017_May_28_1755,
/sounds/legit/left100.wav,left100,,,,7,6,55,0,,,,,,,,,,,,,,,left,0.151706933975,,,,,,,,,participant14,24,59.6985966011,M,trial,2017_May_28_1755,
/sounds/legit/right100.wav,right100,,,,8,0,56,5,,,,,,,,,,,,,,,right,0.0847589969635,,,,,,,,,participant14,24,59.6985966011,M,trial,2017_May_28_1755,
/sounds/legit/left70.wav,left60,,,,8,1,57,1,,,,,,,,,,,,,,,left,0.134798049927,,,,,,,,,participant14,24,59.6985966011,M,trial,2017_May_28_1755,
/sounds/legit/left100.wav,left100,,,,8,2,58,0,,,,,,,,,,,,,,,left,0.168437957764,,,,,,,,,participant14,24,59.6985966011,M,trial,2017_May_28_1755,
/sounds/legit/right70.wav,right60,,,,8,3,59,4,,,,,,,,,,,,,,,right,0.185059070587,,,,,,,,,participant14,24,59.6985966011,M,trial,2017_May_28_1755,
/sounds/legit/right35.wav,right30,,,,8,4,60,3,,,,,,,,,,,,,,,right,0.101492166519,,,,,,,,,participant14,24,59.6985966011,M,trial,2017_May_28_1755,
/sounds/legit/left35.wav,left30,,,,8,5,61,2,,,,,,,,,,,,,,,left,0.385538101196,,,,,,,,,participant14,24,59.6985966011,M,trial,2017_May_28_1755,
/sounds/legit/equal.wav,equal,,,,8,6,62,6,,,,,,,,,,,,,,,left,1.70507693291,,,,,,,,,participant14,24,59.6985966011,M,trial,2017_May_28_1755,
/sounds/legit/left70.wav,left60,,,,9,0,63,1,,,,,,,,,,,,,,,left,0.235188007355,,,,,,,,,participant14,24,59.6985966011,M,trial,2017_May_28_1755,
/sounds/legit/right100.wav,right100,,,,9,1,64,5,,,,,,,,,,,,,,,right,0.168423175812,,,,,,,,,participant14,24,59.6985966011,M,trial,2017_May_28_1755,
/sounds/legit/left100.wav,left100,,,,9,2,65,0,,,,,,,,,,,,,,,left,0.151616096497,,,,,,,,,participant14,24,59.6985966011,M,trial,2017_May_28_1755,
/sounds/legit/left35.wav,left30,,,,9,3,66,2,,,,,,,,,,,,,,,left,0.168365001678,,,,,,,,,participant14,24,59.6985966011,M,trial,2017_May_28_1755,
/sounds/legit/right70.wav,right60,,,,9,4,67,4,,,,,,,,,,,,,,,right,1.17030000687,,,,,,,,,participant14,24,59.6985966011,M,trial,2017_May_28_1755,
/sounds/legit/right35.wav,right30,,,,9,5,68,3,,,,,,,,,,,,,,,right,0.402271986008,,,,,,,,,participant14,24,59.6985966011,M,trial,2017_May_28_1755,
/sounds/legit/equal.wav,equal,,,,9,6,69,6,,,,,,,,,,,,,,,left,0.452347040176,,,,,,,,,participant14,24,59.6985966011,M,trial,2017_May_28_1755,
,,,,,,,,,,,,,,,,,,,,,,,,,space,21.9488520622,,,,,,,participant14,24,59.6985966011,M,trial,2017_May_28_1755,
,,0.1,"[-6.75, 0]",/sounds/legit/left100.wav,,,,,0,0,0,30,,,,,,,,,,,,,,,right,4.72848200798,,,,,participant14,24,59.6985966011,M,trial,2017_May_28_1755,
,,0.49,"[-2.25, 0]",/sounds/legit/left35.wav,,,,,0,1,1,23,,,,,,,,,,,,,,,left,3.30820894241,,,,,participant14,24,59.6985966011,M,trial,2017_May_28_1755,
,,0.1,"[6.75, 0]",/sounds/legit/right100.wav,,,,,0,2,2,15,,,,,,,,,,,,,,,left,16.4364719391,,,,,participant14,24,59.6985966011,M,trial,2017_May_28_1755,
,,0.49,"[6.75, 0]",/sounds/legit/right100.wav,,,,,0,3,3,18,,,,,,,,,,,,,,,right,22.3656630516,,,,,participant14,24,59.6985966011,M,trial,2017_May_28_1755,
,,0.49,"[2.25, 0]",/sounds/legit/right35.wav,,,,,0,4,4,8,,,,,,,,,,,,,,,right,1.57151412964,,,,,participant14,24,59.6985966011,M,trial,2017_May_28_1755,
,,0.23,"[-4.5, 0]",/sounds/legit/left70.wav,,,,,0,5,5,26,,,,,,,,,,,,,,,left,0.352373123169,,,,,participant14,24,59.6985966011,M,trial,2017_May_28_1755,
,,0.62,"[-2.25, 0]",/sounds/legit/left35.wav,,,,,0,6,6,24,,,,,,,,,,,,,,,left,0.836512088776,,,,,participant14,24,59.6985966011,M,trial,2017_May_28_1755,
,,0.23,"[4.5, 0]",/sounds/legit/right70.wav,,,,,0,7,7,11,,,,,,,,,,,,,,,right,0.335156917572,,,,,participant14,24,59.6985966011,M,trial,2017_May_28_1755,
,,0.36,"[-2.25, 0]",/sounds/legit/left35.wav,,,,,0,8,8,22,,,,,,,,,,,,,,,left,0.268476009369,,,,,participant14,24,59.6985966011,M,trial,2017_May_28_1755,
,,0.62,"[4.5, 0]",/sounds/legit/right70.wav,,,,,0,9,9,14,,,,,,,,,,,,,,,right,0.519137144089,,,,,participant14,24,59.6985966011,M,trial,2017_May_28_1755,
,,0.36,"[-4.5, 0]",/sounds/legit/left70.wav,,,,,0,10,10,27,,,,,,,,,,,,,,,left,0.118046998978,,,,,participant14,24,59.6985966011,M,trial,2017_May_28_1755,
,,0.62,"[0, 0]",/sounds/legit/equal.wav,,,,,0,11,11,4,,,,,,,,,,,,,,,right,0.285401105881,,,,,participant14,24,59.6985966011,M,trial,2017_May_28_1755,
,,0.1,"[0, 0]",/sounds/legit/equal.wav,,,,,0,12,12,0,,,,,,,,,,,,,,,left,0.919867992401,,,,,participant14,24,59.6985966011,M,trial,2017_May_28_1755,
,,0.36,"[2.25, 0]",/sounds/legit/right35.wav,,,,,0,13,13,7,,,,,,,,,,,,,,,right,0.886548042297,,,,,participant14,24,59.6985966011,M,trial,2017_May_28_1755,
,,0.49,"[-6.75, 0]",/sounds/legit/left100.wav,,,,,0,14,14,33,,,,,,,,,,,,,,,left,0.235189914703,,,,,participant14,24,59.6985966011,M,trial,2017_May_28_1755,
,,0.23,"[-6.75, 0]",/sounds/legit/left100.wav,,,,,0,15,15,31,,,,,,,,,,,,,,,left,0.068176984787,,,,,participant14,24,59.6985966011,M,trial,2017_May_28_1755,
,,0.36,"[4.5, 0]",/sounds/legit/right70.wav,,,,,0,16,16,12,,,,,,,,,,,,,,,right,2.50573801994,,,,,participant14,24,59.6985966011,M,trial,2017_May_28_1755,
,,0.62,"[2.25, 0]",/sounds/legit/right35.wav,,,,,0,17,17,9,,,,,,,,,,,,,,,right,0.218497991562,,,,,participant14,24,59.6985966011,M,trial,2017_May_28_1755,
,,0.49,"[0, 0]",/sounds/legit/equal.wav,,,,,0,18,18,3,,,,,,,,,,,,,,,right,0.0846948623657,,,,,participant14,24,59.6985966011,M,trial,2017_May_28_1755,
,,0.1,"[4.5, 0]",/sounds/legit/right70.wav,,,,,0,19,19,10,,,,,,,,,,,,,,,right,0.0514390468597,,,,,participant14,24,59.6985966011,M,trial,2017_May_28_1755,
,,0.23,"[-2.25, 0]",/sounds/legit/left35.wav,,,,,0,20,20,21,,,,,,,,,,,,,,,left,0.0515749454498,,,,,participant14,24,59.6985966011,M,trial,2017_May_28_1755,
,,0.62,"[-6.75, 0]",/sounds/legit/left100.wav,,,,,0,21,21,34,,,,,,,,,,,,,,,left,0.385504007339,,,,,participant14,24,59.6985966011,M,trial,2017_May_28_1755,
,,0.49,"[4.5, 0]",/sounds/legit/right70.wav,,,,,0,22,22,13,,,,,,,,,,,,,,,right,0.301875114441,,,,,participant14,24,59.6985966011,M,trial,2017_May_28_1755,
,,0.49,"[-4.5, 0]",/sounds/legit/left70.wav,,,,,0,23,23,28,,,,,,,,,,,,,,,left,0.635852098465,,,,,participant14,24,59.6985966011,M,trial,2017_May_28_1755,
,,0.36,"[-6.75, 0]",/sounds/legit/left100.wav,,,,,0,24,24,32,,,,,,,,,,,,,,,left,0.402162075043,,,,,participant14,24,59.6985966011,M,trial,2017_May_28_1755,
,,0.1,"[2.25, 0]",/sounds/legit/right35.wav,,,,,0,25,25,5,,,,,,,,,,,,,,,right,0.101617097855,,,,,participant14,24,59.6985966011,M,trial,2017_May_28_1755,
,,0.23,"[2.25, 0]",/sounds/legit/right35.wav,,,,,0,26,26,6,,,,,,,,,,,,,,,right,0.0179240703583,,,,,participant14,24,59.6985966011,M,trial,2017_May_28_1755,
,,0.23,"[0, 0]",/sounds/legit/equal.wav,,,,,0,27,27,1,,,,,,,,,,,,,,,right,0.185111045837,,,,,participant14,24,59.6985966011,M,trial,2017_May_28_1755,
,,0.1,"[-2.25, 0]",/sounds/legit/left35.wav,,,,,0,28,28,20,,,,,,,,,,,,,,,left,0.301817893982,,,,,participant14,24,59.6985966011,M,trial,2017_May_28_1755,
,,0.23,"[6.75, 0]",/sounds/legit/right100.wav,,,,,0,29,29,16,,,,,,,,,,,,,,,right,0.302387952805,,,,,participant14,24,59.6985966011,M,trial,2017_May_28_1755,
,,0.62,"[-4.5, 0]",/sounds/legit/left70.wav,,,,,0,30,30,29,,,,,,,,,,,,,,,left,0.301769018173,,,,,participant14,24,59.6985966011,M,trial,2017_May_28_1755,
,,0.36,"[0, 0]",/sounds/legit/equal.wav,,,,,0,31,31,2,,,,,,,,,,,,,,,left,0.251914978027,,,,,participant14,24,59.6985966011,M,trial,2017_May_28_1755,
,,0.36,"[6.75, 0]",/sounds/legit/right100.wav,,,,,0,32,32,17,,,,,,,,,,,,,,,right,0.185259103775,,,,,participant14,24,59.6985966011,M,trial,2017_May_28_1755,
,,0.1,"[-4.5, 0]",/sounds/legit/left70.wav,,,,,0,33,33,25,,,,,,,,,,,,,,,left,0.285239934921,,,,,participant14,24,59.6985966011,M,trial,2017_May_28_1755,
,,0.62,"[6.75, 0]",/sounds/legit/right100.wav,,,,,0,34,34,19,,,,,,,,,,,,,,,right,0.20151591301,,,,,participant14,24,59.6985966011,M,trial,2017_May_28_1755,
,,0.1,"[2.25, 0]",/sounds/legit/right35.wav,,,,,1,0,35,5,,,,,,,,,,,,,,,right,0.118391036987,,,,,participant14,24,59.6985966011,M,trial,2017_May_28_1755,
,,0.62,"[0, 0]",/sounds/legit/equal.wav,,,,,1,1,36,4,,,,,,,,,,,,,,,left,0.318792819977,,,,,participant14,24,59.6985966011,M,trial,2017_May_28_1755,
,,0.36,"[4.5, 0]",/sounds/legit/right70.wav,,,,,1,2,37,12,,,,,,,,,,,,,,,right,0.185017824173,,,,,participant14,24,59.6985966011,M,trial,2017_May_28_1755,
,,0.49,"[0, 0]",/sounds/legit/equal.wav,,,,,1,3,38,3,,,,,,,,,,,,,,,left,0.201726198196,,,,,participant14,24,59.6985966011,M,trial,2017_May_28_1755,
,,0.1,"[-2.25, 0]",/sounds/legit/left35.wav,,,,,1,4,39,20,,,,,,,,,,,,,,,left,0.318646907806,,,,,participant14,24,59.6985966011,M,trial,2017_May_28_1755,
,,0.36,"[-4.5, 0]",/sounds/legit/left70.wav,,,,,1,5,40,27,,,,,,,,,,,,,,,left,0.235249042511,,,,,participant14,24,59.6985966011,M,trial,2017_May_28_1755,
,,0.1,"[-6.75, 0]",/sounds/legit/left100.wav,,,,,1,6,41,30,,,,,,,,,,,,,,,left,0.268534898758,,,,,participant14,24,59.6985966011,M,trial,2017_May_28_1755,
,,0.23,"[6.75, 0]",/sounds/legit/right100.wav,,,,,1,7,42,16,,,,,,,,,,,,,,,right,0.201902866364,,,,,participant14,24,59.6985966011,M,trial,2017_May_28_1755,
,,0.49,"[-4.5, 0]",/sounds/legit/left70.wav,,,,,1,8,43,28,,,,,,,,,,,,,,,left,0.184961080551,,,,,participant14,24,59.6985966011,M,trial,2017_May_28_1755,
,,0.49,"[2.25, 0]",/sounds/legit/right35.wav,,,,,1,9,44,8,,,,,,,,,,,,,,,right,0.151853084564,,,,,participant14,24,59.6985966011,M,trial,2017_May_28_1755,
,,0.1,"[6.75, 0]",/sounds/legit/right100.wav,,,,,1,10,45,15,,,,,,,,,,,,,,,right,0.235067844391,,,,,participant14,24,59.6985966011,M,trial,2017_May_28_1755,
,,0.62,"[6.75, 0]",/sounds/legit/right100.wav,,,,,1,11,46,19,,,,,,,,,,,,,,,right,0.268476009369,,,,,participant14,24,59.6985966011,M,trial,2017_May_28_1755,
,,0.62,"[-2.25, 0]",/sounds/legit/left35.wav,,,,,1,12,47,24,,,,,,,,,,,,,,,left,0.251492977142,,,,,participant14,24,59.6985966011,M,trial,2017_May_28_1755,
,,0.23,"[-6.75, 0]",/sounds/legit/left100.wav,,,,,1,13,48,31,,,,,,,,,,,,,,,left,0.318690061569,,,,,participant14,24,59.6985966011,M,trial,2017_May_28_1755,
,,0.1,"[-4.5, 0]",/sounds/legit/left70.wav,,,,,1,14,49,25,,,,,,,,,,,,,,,left,0.251583099365,,,,,participant14,24,59.6985966011,M,trial,2017_May_28_1755,
,,0.62,"[-4.5, 0]",/sounds/legit/left70.wav,,,,,1,15,50,29,,,,,,,,,,,,,,,left,0.218418121338,,,,,participant14,24,59.6985966011,M,trial,2017_May_28_1755,
,,0.23,"[-4.5, 0]",/sounds/legit/left70.wav,,,,,1,16,51,26,,,,,,,,,,,,,,,left,0.402210950851,,,,,participant14,24,59.6985966011,M,trial,2017_May_28_1755,
,,0.49,"[4.5, 0]",/sounds/legit/right70.wav,,,,,1,17,52,13,,,,,,,,,,,,,,,right,0.251873970032,,,,,participant14,24,59.6985966011,M,trial,2017_May_28_1755,
,,0.23,"[-2.25, 0]",/sounds/legit/left35.wav,,,,,1,18,53,21,,,,,,,,,,,,,,,left,0.286660909653,,,,,participant14,24,59.6985966011,M,trial,2017_May_28_1755,
,,0.23,"[4.5, 0]",/sounds/legit/right70.wav,,,,,1,19,54,11,,,,,,,,,,,,,,,right,0.0848751068115,,,,,participant14,24,59.6985966011,M,trial,2017_May_28_1755,
,,0.23,"[0, 0]",/sounds/legit/equal.wav,,,,,1,20,55,1,,,,,,,,,,,,,,,left,0.185474872589,,,,,participant14,24,59.6985966011,M,trial,2017_May_28_1755,
,,0.23,"[2.25, 0]",/sounds/legit/right35.wav,,,,,1,21,56,6,,,,,,,,,,,,,,,right,0.335347890854,,,,,participant14,24,59.6985966011,M,trial,2017_May_28_1755,
,,0.36,"[-2.25, 0]",/sounds/legit/left35.wav,,,,,1,22,57,22,,,,,,,,,,,,,,,left,0.23511505127,,,,,participant14,24,59.6985966011,M,trial,2017_May_28_1755,
,,0.36,"[0, 0]",/sounds/legit/equal.wav,,,,,1,23,58,2,,,,,,,,,,,,,,,left,0.986884832382,,,,,participant14,24,59.6985966011,M,trial,2017_May_28_1755,
,,0.62,"[4.5, 0]",/sounds/legit/right70.wav,,,,,1,24,59,14,,,,,,,,,,,,,,,right,0.301619052887,,,,,participant14,24,59.6985966011,M,trial,2017_May_28_1755,
,,0.1,"[4.5, 0]",/sounds/legit/right70.wav,,,,,1,25,60,10,,,,,,,,,,,,,,,right,1.10378313065,,,,,participant14,24,59.6985966011,M,trial,2017_May_28_1755,
,,0.36,"[2.25, 0]",/sounds/legit/right35.wav,,,,,1,26,61,7,,,,,,,,,,,,,,,right,0.201689958572,,,,,participant14,24,59.6985966011,M,trial,2017_May_28_1755,
,,0.49,"[6.75, 0]",/sounds/legit/right100.wav,,,,,1,27,62,18,,,,,,,,,,,,,,,right,0.251673936844,,,,,participant14,24,59.6985966011,M,trial,2017_May_28_1755,
,,0.36,"[-6.75, 0]",/sounds/legit/left100.wav,,,,,1,28,63,32,,,,,,,,,,,,,,,left,0.285301923752,,,,,participant14,24,59.6985966011,M,trial,2017_May_28_1755,
,,0.49,"[-6.75, 0]",/sounds/legit/left100.wav,,,,,1,29,64,33,,,,,,,,,,,,,,,left,0.485633850098,,,,,participant14,24,59.6985966011,M,trial,2017_May_28_1755,
,,0.1,"[0, 0]",/sounds/legit/equal.wav,,,,,1,30,65,0,,,,,,,,,,,,,,,left,0.385464191437,,,,,participant14,24,59.6985966011,M,trial,2017_May_28_1755,
,,0.49,"[-2.25, 0]",/sounds/legit/left35.wav,,,,,1,31,66,23,,,,,,,,,,,,,,,left,0.268612146378,,,,,participant14,24,59.6985966011,M,trial,2017_May_28_1755,
,,0.62,"[-6.75, 0]",/sounds/legit/left100.wav,,,,,1,32,67,34,,,,,,,,,,,,,,,left,0.2184009552,,,,,participant14,24,59.6985966011,M,trial,2017_May_28_1755,
,,0.36,"[6.75, 0]",/sounds/legit/right100.wav,,,,,1,33,68,17,,,,,,,,,,,,,,,right,0.836654901505,,,,,participant14,24,59.6985966011,M,trial,2017_May_28_1755,
,,0.62,"[2.25, 0]",/sounds/legit/right35.wav,,,,,1,34,69,9,,,,,,,,,,,,,,,right,0.318616867065,,,,,participant14,24,59.6985966011,M,trial,2017_May_28_1755,
,,0.1,"[2.25, 0]",/sounds/legit/right35.wav,,,,,2,0,70,5,,,,,,,,,,,,,,,right,0.201855897903,,,,,participant14,24,59.6985966011,M,trial,2017_May_28_1755,
,,0.23,"[-6.75, 0]",/sounds/legit/left100.wav,,,,,2,1,71,31,,,,,,,,,,,,,,,left,0.151880979538,,,,,participant14,24,59.6985966011,M,trial,2017_May_28_1755,
,,0.36,"[6.75, 0]",/sounds/legit/right100.wav,,,,,2,2,72,17,,,,,,,,,,,,,,,right,0.301944971085,,,,,participant14,24,59.6985966011,M,trial,2017_May_28_1755,
,,0.62,"[-6.75, 0]",/sounds/legit/left100.wav,,,,,2,3,73,34,,,,,,,,,,,,,,,left,0.268795967102,,,,,participant14,24,59.6985966011,M,trial,2017_May_28_1755,
,,0.23,"[-4.5, 0]",/sounds/legit/left70.wav,,,,,2,4,74,26,,,,,,,,,,,,,,,left,0.0680048465729,,,,,participant14,24,59.6985966011,M,trial,2017_May_28_1755,
,,0.1,"[6.75, 0]",/sounds/legit/right100.wav,,,,,2,5,75,15,,,,,,,,,,,,,,,right,0.0680739879608,,,,,participant14,24,59.6985966011,M,trial,2017_May_28_1755,
,,0.49,"[2.25, 0]",/sounds/legit/right35.wav,,,,,2,6,76,8,,,,,,,,,,,,,,,right,0.000412940979004,,,,,participant14,24,59.6985966011,M,trial,2017_May_28_1755,
,,0.62,"[-4.5, 0]",/sounds/legit/left70.wav,,,,,2,7,77,29,,,,,,,,,,,,,,,left,0.218657970428,,,,,participant14,24,59.6985966011,M,trial,2017_May_28_1755,
,,0.62,"[2.25, 0]",/sounds/legit/right35.wav,,,,,2,8,78,9,,,,,,,,,,,,,,,right,0.218490123749,,,,,participant14,24,59.6985966011,M,trial,2017_May_28_1755,
,,0.1,"[-4.5, 0]",/sounds/legit/left70.wav,,,,,2,9,79,25,,,,,,,,,,,,,,,left,0.23493719101,,,,,participant14,24,59.6985966011,M,trial,2017_May_28_1755,
,,0.49,"[-4.5, 0]",/sounds/legit/left70.wav,,,,,2,10,80,28,,,,,,,,,,,,,,,left,0.385764837265,,,,,participant14,24,59.6985966011,M,trial,2017_May_28_1755,
,,0.36,"[0, 0]",/sounds/legit/equal.wav,,,,,2,11,81,2,,,,,,,,,,,,,,,right,0.301923036575,,,,,participant14,24,59.6985966011,M,trial,2017_May_28_1755,
,,0.1,"[0, 0]",/sounds/legit/equal.wav,,,,,2,12,82,0,,,,,,,,,,,,,,,left,0.469518899918,,,,,participant14,24,59.6985966011,M,trial,2017_May_28_1755,
,,0.23,"[-2.25, 0]",/sounds/legit/left35.wav,,,,,2,13,83,21,,,,,,,,,,,,,,,left,0.251899003983,,,,,participant14,24,59.6985966011,M,trial,2017_May_28_1755,
,,0.1,"[4.5, 0]",/sounds/legit/right70.wav,,,,,2,14,84,10,,,,,,,,,,,,,,,right,0.22020983696,,,,,participant14,24,59.6985966011,M,trial,2017_May_28_1755,
,,0.49,"[-6.75, 0]",/sounds/legit/left100.wav,,,,,2,15,85,33,,,,,,,,,,,,,,,left,0.402120828629,,,,,participant14,24,59.6985966011,M,trial,2017_May_28_1755,
,,0.62,"[0, 0]",/sounds/legit/equal.wav,,,,,2,16,86,4,,,,,,,,,,,,,,,right,0.418750047684,,,,,participant14,24,59.6985966011,M,trial,2017_May_28_1755,
,,0.36,"[4.5, 0]",/sounds/legit/right70.wav,,,,,2,17,87,12,,,,,,,,,,,,,,,right,0.903578042984,,,,,participant14,24,59.6985966011,M,trial,2017_May_28_1755,
,,0.23,"[2.25, 0]",/sounds/legit/right35.wav,,,,,2,18,88,6,,,,,,,,,,,,,,,right,0.50241112709,,,,,participant14,24,59.6985966011,M,trial,2017_May_28_1755,
,,0.23,"[0, 0]",/sounds/legit/equal.wav,,,,,2,19,89,1,,,,,,,,,,,,,,,right,1.1534640789,,,,,participant14,24,59.6985966011,M,trial,2017_May_28_1755,
,,0.1,"[-2.25, 0]",/sounds/legit/left35.wav,,,,,2,20,90,20,,,,,,,,,,,,,,,left,0.468988895416,,,,,participant14,24,59.6985966011,M,trial,2017_May_28_1755,
,,0.1,"[-6.75, 0]",/sounds/legit/left100.wav,,,,,2,21,91,30,,,,,,,,,,,,,,,left,0.201603889465,,,,,participant14,24,59.6985966011,M,trial,2017_May_28_1755,
,,0.62,"[6.75, 0]",/sounds/legit/right100.wav,,,,,2,22,92,19,,,,,,,,,,,,,,,right,0.302062988281,,,,,participant14,24,59.6985966011,M,trial,2017_May_28_1755,
,,0.49,"[4.5, 0]",/sounds/legit/right70.wav,,,,,2,23,93,13,,,,,,,,,,,,,,,right,0.335537910461,,,,,participant14,24,59.6985966011,M,trial,2017_May_28_1755,
,,0.62,"[-2.25, 0]",/sounds/legit/left35.wav,,,,,2,24,94,24,,,,,,,,,,,,,,,left,0.502410173416,,,,,participant14,24,59.6985966011,M,trial,2017_May_28_1755,
,,0.62,"[4.5, 0]",/sounds/legit/right70.wav,,,,,2,25,95,14,,,,,,,,,,,,,,,left,0.402163028717,,,,,participant14,24,59.6985966011,M,trial,2017_May_28_1755,
,,0.23,"[4.5, 0]",/sounds/legit/right70.wav,,,,,2,26,96,11,,,,,,,,,,,,,,,right,0.318787097931,,,,,participant14,24,59.6985966011,M,trial,2017_May_28_1755,
,,0.36,"[-6.75, 0]",/sounds/legit/left100.wav,,,,,2,27,97,32,,,,,,,,,,,,,,,left,0.936914920807,,,,,participant14,24,59.6985966011,M,trial,2017_May_28_1755,
,,0.36,"[2.25, 0]",/sounds/legit/right35.wav,,,,,2,28,98,7,,,,,,,,,,,,,,,right,0.201798200607,,,,,participant14,24,59.6985966011,M,trial,2017_May_28_1755,
,,0.49,"[0, 0]",/sounds/legit/equal.wav,,,,,2,29,99,3,,,,,,,,,,,,,,,left,0.669378042221,,,,,participant14,24,59.6985966011,M,trial,2017_May_28_1755,
,,0.36,"[-2.25, 0]",/sounds/legit/left35.wav,,,,,2,30,100,22,,,,,,,,,,,,,,,left,0.28547000885,,,,,participant14,24,59.6985966011,M,trial,2017_May_28_1755,
,,0.36,"[-4.5, 0]",/sounds/legit/left70.wav,,,,,2,31,101,27,,,,,,,,,,,,,,,left,0.38546204567,,,,,participant14,24,59.6985966011,M,trial,2017_May_28_1755,
,,0.23,"[6.75, 0]",/sounds/legit/right100.wav,,,,,2,32,102,16,,,,,,,,,,,,,,,right,0.268657922745,,,,,participant14,24,59.6985966011,M,trial,2017_May_28_1755,
,,0.49,"[-2.25, 0]",/sounds/legit/left35.wav,,,,,2,33,103,23,,,,,,,,,,,,,,,left,0.00117301940918,,,,,participant14,24,59.6985966011,M,trial,2017_May_28_1755,
,,0.49,"[6.75, 0]",/sounds/legit/right100.wav,,,,,2,34,104,18,,,,,,,,,,,,,,,right,0.569466114044,,,,,participant14,24,59.6985966011,M,trial,2017_May_28_1755,
,,0.36,"[-2.25, 0]",/sounds/legit/left35.wav,,,,,3,0,105,22,,,,,,,,,,,,,,,left,0.118278026581,,,,,participant14,24,59.6985966011,M,trial,2017_May_28_1755,
,,0.23,"[-6.75, 0]",/sounds/legit/left100.wav,,,,,3,1,106,31,,,,,,,,,,,,,,,left,0.0344219207764,,,,,participant14,24,59.6985966011,M,trial,2017_May_28_1755,
,,0.23,"[-2.25, 0]",/sounds/legit/left35.wav,,,,,3,2,107,21,,,,,,,,,,,,,,,left,0.285246133804,,,,,participant14,24,59.6985966011,M,trial,2017_May_28_1755,
,,0.49,"[4.5, 0]",/sounds/legit/right70.wav,,,,,3,3,108,13,,,,,,,,,,,,,,,right,0.218623161316,,,,,participant14,24,59.6985966011,M,trial,2017_May_28_1755,
,,0.23,"[-4.5, 0]",/sounds/legit/left70.wav,,,,,3,4,109,26,,,,,,,,,,,,,,,left,0.469110012054,,,,,participant14,24,59.6985966011,M,trial,2017_May_28_1755,
,,0.36,"[2.25, 0]",/sounds/legit/right35.wav,,,,,3,5,110,7,,,,,,,,,,,,,,,right,0.235188007355,,,,,participant14,24,59.6985966011,M,trial,2017_May_28_1755,
,,0.1,"[2.25, 0]",/sounds/legit/right35.wav,,,,,3,6,111,5,,,,,,,,,,,,,,,right,0.368761062622,,,,,participant14,24,59.6985966011,M,trial,2017_May_28_1755,
,,0.62,"[0, 0]",/sounds/legit/equal.wav,,,,,3,7,112,4,,,,,,,,,,,,,,,left,0.301980018616,,,,,participant14,24,59.6985966011,M,trial,2017_May_28_1755,
,,0.49,"[-6.75, 0]",/sounds/legit/left100.wav,,,,,3,8,113,33,,,,,,,,,,,,,,,left,1.20395112038,,,,,participant14,24,59.6985966011,M,trial,2017_May_28_1755,
,,0.49,"[2.25, 0]",/sounds/legit/right35.wav,,,,,3,9,114,8,,,,,,,,,,,,,,,right,0.36870098114,,,,,participant14,24,59.6985966011,M,trial,2017_May_28_1755,
,,0.23,"[0, 0]",/sounds/legit/equal.wav,,,,,3,10,115,1,,,,,,,,,,,,,,,left,1.03703403473,,,,,participant14,24,59.6985966011,M,trial,2017_May_28_1755,
,,0.36,"[6.75, 0]",/sounds/legit/right100.wav,,,,,3,11,116,17,,,,,,,,,,,,,,,left,0.585891008377,,,,,participant14,24,59.6985966011,M,trial,2017_May_28_1755,
,,0.36,"[0, 0]",/sounds/legit/equal.wav,,,,,3,12,117,2,,,,,,,,,,,,,,,right,0.534860134125,,,,,participant14,24,59.6985966011,M,trial,2017_May_28_1755,
,,0.1,"[0, 0]",/sounds/legit/equal.wav,,,,,3,13,118,0,,,,,,,,,,,,,,,left,1.00345993042,,,,,participant14,24,59.6985966011,M,trial,2017_May_28_1755,
,,0.36,"[-6.75, 0]",/sounds/legit/left100.wav,,,,,3,14,119,32,,,,,,,,,,,,,,,left,0.552539110184,,,,,participant14,24,59.6985966011,M,trial,2017_May_28_1755,
,,0.62,"[6.75, 0]",/sounds/legit/right100.wav,,,,,3,15,120,19,,,,,,,,,,,,,,,left,0.318556070328,,,,,participant14,24,59.6985966011,M,trial,2017_May_28_1755,
,,0.62,"[-6.75, 0]",/sounds/legit/left100.wav,,,,,3,16,121,34,,,,,,,,,,,,,,,left,0.217760801315,,,,,participant14,24,59.6985966011,M,trial,2017_May_28_1755,
,,0.49,"[6.75, 0]",/sounds/legit/right100.wav,,,,,3,17,122,18,,,,,,,,,,,,,,,right,0.351910114288,,,,,participant14,24,59.6985966011,M,trial,2017_May_28_1755,
,,0.23,"[2.25, 0]",/sounds/legit/right35.wav,,,,,3,18,123,6,,,,,,,,,,,,,,,right,0.752949953079,,,,,participant14,24,59.6985966011,M,trial,2017_May_28_1755,
,,0.62,"[2.25, 0]",/sounds/legit/right35.wav,,,,,3,19,124,9,,,,,,,,,,,,,,,right,0.652639865875,,,,,participant14,24,59.6985966011,M,trial,2017_May_28_1755,
,,0.49,"[-2.25, 0]",/sounds/legit/left35.wav,,,,,3,20,125,23,,,,,,,,,,,,,,,left,0.736071109772,,,,,participant14,24,59.6985966011,M,trial,2017_May_28_1755,
,,0.62,"[-4.5, 0]",/sounds/legit/left70.wav,,,,,3,21,126,29,,,,,,,,,,,,,,,left,0.385428905487,,,,,participant14,24,59.6985966011,M,trial,2017_May_28_1755,
,,0.1,"[-2.25, 0]",/sounds/legit/left35.wav,,,,,3,22,127,20,,,,,,,,,,,,,,,left,0.418852090836,,,,,participant14,24,59.6985966011,M,trial,2017_May_28_1755,
,,0.23,"[6.75, 0]",/sounds/legit/right100.wav,,,,,3,23,128,16,,,,,,,,,,,,,,,right,0.485862970352,,,,,participant14,24,59.6985966011,M,trial,2017_May_28_1755,
,,0.36,"[-4.5, 0]",/sounds/legit/left70.wav,,,,,3,24,129,27,,,,,,,,,,,,,,,left,0.402001142502,,,,,participant14,24,59.6985966011,M,trial,2017_May_28_1755,
,,0.49,"[0, 0]",/sounds/legit/equal.wav,,,,,3,25,130,3,,,,,,,,,,,,,,,left,0.368754148483,,,,,participant14,24,59.6985966011,M,trial,2017_May_28_1755,
,,0.49,"[-4.5, 0]",/sounds/legit/left70.wav,,,,,3,26,131,28,,,,,,,,,,,,,,,left,0.101494073868,,,,,participant14,24,59.6985966011,M,trial,2017_May_28_1755,
,,0.62,"[4.5, 0]",/sounds/legit/right70.wav,,,,,3,27,132,14,,,,,,,,,,,,,,,right,0.385315895081,,,,,participant14,24,59.6985966011,M,trial,2017_May_28_1755,
,,0.1,"[6.75, 0]",/sounds/legit/right100.wav,,,,,3,28,133,15,,,,,,,,,,,,,,,right,0.585976839066,,,,,participant14,24,59.6985966011,M,trial,2017_May_28_1755,
,,0.36,"[4.5, 0]",/sounds/legit/right70.wav,,,,,3,29,134,12,,,,,,,,,,,,,,,right,0.368802070618,,,,,participant14,24,59.6985966011,M,trial,2017_May_28_1755,
,,0.1,"[-4.5, 0]",/sounds/legit/left70.wav,,,,,3,30,135,25,,,,,,,,,,,,,,,left,0.435528039932,,,,,participant14,24,59.6985966011,M,trial,2017_May_28_1755,
,,0.62,"[-2.25, 0]",/sounds/legit/left35.wav,,,,,3,31,136,24,,,,,,,,,,,,,,,left,0.33526802063,,,,,participant14,24,59.6985966011,M,trial,2017_May_28_1755,
,,0.23,"[4.5, 0]",/sounds/legit/right70.wav,,,,,3,32,137,11,,,,,,,,,,,,,,,right,0.268549919128,,,,,participant14,24,59.6985966011,M,trial,2017_May_28_1755,
,,0.1,"[-6.75, 0]",/sounds/legit/left100.wav,,,,,3,33,138,30,,,,,,,,,,,,,,,left,0.418912887573,,,,,participant14,24,59.6985966011,M,trial,2017_May_28_1755,
,,0.1,"[4.5, 0]",/sounds/legit/right70.wav,,,,,3,34,139,10,,,,,,,,,,,,,,,right,0.535884857178,,,,,participant14,24,59.6985966011,M,trial,2017_May_28_1755,
,,0.62,"[-6.75, 0]",/sounds/legit/left100.wav,,,,,4,0,140,34,,,,,,,,,,,,,,,left,0.486075878143,,,,,participant14,24,59.6985966011,M,trial,2017_May_28_1755,
,,0.49,"[-2.25, 0]",/sounds/legit/left35.wav,,,,,4,1,141,23,,,,,,,,,,,,,,,left,0.385774850845,,,,,participant14,24,59.6985966011,M,trial,2017_May_28_1755,
,,0.36,"[6.75, 0]",/sounds/legit/right100.wav,,,,,4,2,142,17,,,,,,,,,,,,,,,left,0.568160057068,,,,,participant14,24,59.6985966011,M,trial,2017_May_28_1755,
,,0.36,"[-4.5, 0]",/sounds/legit/left70.wav,,,,,4,3,143,27,,,,,,,,,,,,,,,left,0.251883029938,,,,,participant14,24,59.6985966011,M,trial,2017_May_28_1755,
,,0.36,"[2.25, 0]",/sounds/legit/right35.wav,,,,,4,4,144,7,,,,,,,,,,,,,,,right,0.33539891243,,,,,participant14,24,59.6985966011,M,trial,2017_May_28_1755,
,,0.36,"[0, 0]",/sounds/legit/equal.wav,,,,,4,5,145,2,,,,,,,,,,,,,,,right,0.402408123016,,,,,participant14,24,59.6985966011,M,trial,2017_May_28_1755,
,,0.36,"[4.5, 0]",/sounds/legit/right70.wav,,,,,4,6,146,12,,,,,,,,,,,,,,,right,0.552379131317,,,,,participant14,24,59.6985966011,M,trial,2017_May_28_1755,
,,0.49,"[6.75, 0]",/sounds/legit/right100.wav,,,,,4,7,147,18,,,,,,,,,,,,,,,right,0.919974088669,,,,,participant14,24,59.6985966011,M,trial,2017_May_28_1755,
,,0.23,"[-2.25, 0]",/sounds/legit/left35.wav,,,,,4,8,148,21,,,,,,,,,,,,,,,left,0.535773992538,,,,,participant14,24,59.6985966011,M,trial,2017_May_28_1755,
,,0.62,"[-2.25, 0]",/sounds/legit/left35.wav,,,,,4,9,149,24,,,,,,,,,,,,,,,left,0.468251943588,,,,,participant14,24,59.6985966011,M,trial,2017_May_28_1755,
,,0.62,"[4.5, 0]",/sounds/legit/right70.wav,,,,,4,10,150,14,,,,,,,,,,,,,,,right,0.820058107376,,,,,participant14,24,59.6985966011,M,trial,2017_May_28_1755,
,,0.1,"[6.75, 0]",/sounds/legit/right100.wav,,,,,4,11,151,15,,,,,,,,,,,,,,,right,1.30423593521,,,,,participant14,24,59.6985966011,M,trial,2017_May_28_1755,
,,0.62,"[0, 0]",/sounds/legit/equal.wav,,,,,4,12,152,4,,,,,,,,,,,,,,,left,0.836310148239,,,,,participant14,24,59.6985966011,M,trial,2017_May_28_1755,
,,0.62,"[-4.5, 0]",/sounds/legit/left70.wav,,,,,4,13,153,29,,,,,,,,,,,,,,,left,0.853024959564,,,,,participant14,24,59.6985966011,M,trial,2017_May_28_1755,
,,0.1,"[0, 0]",/sounds/legit/equal.wav,,,,,4,14,154,0,,,,,,,,,,,,,,,left,0.501425027847,,,,,participant14,24,59.6985966011,M,trial,2017_May_28_1755,
,,0.62,"[6.75, 0]",/sounds/legit/right100.wav,,,,,4,15,155,19,,,,,,,,,,,,,,,left,0.669476985931,,,,,participant14,24,59.6985966011,M,trial,2017_May_28_1755,
,,0.23,"[6.75, 0]",/sounds/legit/right100.wav,,,,,4,16,156,16,,,,,,,,,,,,,,,right,0.502613067627,,,,,participant14,24,59.6985966011,M,trial,2017_May_28_1755,
,,0.49,"[2.25, 0]",/sounds/legit/right35.wav,,,,,4,17,157,8,,,,,,,,,,,,,,,left,0.702906131744,,,,,participant14,24,59.6985966011,M,trial,2017_May_28_1755,
,,0.23,"[-4.5, 0]",/sounds/legit/left70.wav,,,,,4,18,158,26,,,,,,,,,,,,,,,left,0.769586086273,,,,,participant14,24,59.6985966011,M,trial,2017_May_28_1755,
,,0.62,"[2.25, 0]",/sounds/legit/right35.wav,,,,,4,19,159,9,,,,,,,,,,,,,,,right,0.752817869186,,,,,participant14,24,59.6985966011,M,trial,2017_May_28_1755,
,,0.23,"[0, 0]",/sounds/legit/equal.wav,,,,,4,20,160,1,,,,,,,,,,,,,,,left,0.419052124023,,,,,participant14,24,59.6985966011,M,trial,2017_May_28_1755,
,,0.1,"[2.25, 0]",/sounds/legit/right35.wav,,,,,4,21,161,5,,,,,,,,,,,,,,,right,0.502319097519,,,,,participant14,24,59.6985966011,M,trial,2017_May_28_1755,
,,0.49,"[0, 0]",/sounds/legit/equal.wav,,,,,4,22,162,3,,,,,,,,,,,,,,,left,0.519345998764,,,,,participant14,24,59.6985966011,M,trial,2017_May_28_1755,
,,0.1,"[-4.5, 0]",/sounds/legit/left70.wav,,,,,4,23,163,25,,,,,,,,,,,,,,,left,0.619603872299,,,,,participant14,24,59.6985966011,M,trial,2017_May_28_1755,
,,0.1,"[-2.25, 0]",/sounds/legit/left35.wav,,,,,4,24,164,20,,,,,,,,,,,,,,,left,0.969907999039,,,,,participant14,24,59.6985966011,M,trial,2017_May_28_1755,
,,0.49,"[4.5, 0]",/sounds/legit/right70.wav,,,,,4,25,165,13,,,,,,,,,,,,,,,right,0.30203795433,,,,,participant14,24,59.6985966011,M,trial,2017_May_28_1755,
,,0.23,"[4.5, 0]",/sounds/legit/right70.wav,,,,,4,26,166,11,,,,,,,,,,,,,,,right,0.452136039734,,,,,participant14,24,59.6985966011,M,trial,2017_May_28_1755,
,,0.1,"[4.5, 0]",/sounds/legit/right70.wav,,,,,4,27,167,10,,,,,,,,,,,,,,,right,1.48808383942,,,,,participant14,24,59.6985966011,M,trial,2017_May_28_1755,
,,0.1,"[-6.75, 0]",/sounds/legit/left100.wav,,,,,4,28,168,30,,,,,,,,,,,,,,,left,0.335433959961,,,,,participant14,24,59.6985966011,M,trial,2017_May_28_1755,
,,0.49,"[-4.5, 0]",/sounds/legit/left70.wav,,,,,4,29,169,28,,,,,,,,,,,,,,,left,0.385718822479,,,,,participant14,24,59.6985966011,M,trial,2017_May_28_1755,
,,0.23,"[2.25, 0]",/sounds/legit/right35.wav,,,,,4,30,170,6,,,,,,,,,,,,,,,right,0.484714031219,,,,,participant14,24,59.6985966011,M,trial,2017_May_28_1755,
,,0.36,"[-6.75, 0]",/sounds/legit/left100.wav,,,,,4,31,171,32,,,,,,,,,,,,,,,left,0.418751955032,,,,,participant14,24,59.6985966011,M,trial,2017_May_28_1755,
,,0.36,"[-2.25, 0]",/sounds/legit/left35.wav,,,,,4,32,172,22,,,,,,,,,,,,,,,left,0.452179908752,,,,,participant14,24,59.6985966011,M,trial,2017_May_28_1755,
,,0.49,"[-6.75, 0]",/sounds/legit/left100.wav,,,,,4,33,173,33,,,,,,,,,,,,,,,left,0.569099187851,,,,,participant14,24,59.6985966011,M,trial,2017_May_28_1755,
,,0.23,"[-6.75, 0]",/sounds/legit/left100.wav,,,,,4,34,174,31,,,,,,,,,,,,,,,left,0.301827907562,,,,,participant14,24,59.6985966011,M,trial,2017_May_28_1755,
,,0.62,"[6.75, 0]",/sounds/legit/right100.wav,,,,,5,0,175,19,,,,,,,,,,,,,,,right,0.402308940887,,,,,participant14,24,59.6985966011,M,trial,2017_May_28_1755,
,,0.49,"[0, 0]",/sounds/legit/equal.wav,,,,,5,1,176,3,,,,,,,,,,,,,,,left,0.469105005264,,,,,participant14,24,59.6985966011,M,trial,2017_May_28_1755,
,,0.36,"[-2.25, 0]",/sounds/legit/left35.wav,,,,,5,2,177,22,,,,,,,,,,,,,,,left,0.151726961136,,,,,participant14,24,59.6985966011,M,trial,2017_May_28_1755,
,,0.23,"[-2.25, 0]",/sounds/legit/left35.wav,,,,,5,3,178,21,,,,,,,,,,,,,,,left,0.468062162399,,,,,participant14,24,59.6985966011,M,trial,2017_May_28_1755,
,,0.1,"[-6.75, 0]",/sounds/legit/left100.wav,,,,,5,4,179,30,,,,,,,,,,,,,,,left,0.251930952072,,,,,participant14,24,59.6985966011,M,trial,2017_May_28_1755,
,,0.1,"[2.25, 0]",/sounds/legit/right35.wav,,,,,5,5,180,5,,,,,,,,,,,,,,,left,0.335345983505,,,,,participant14,24,59.6985966011,M,trial,2017_May_28_1755,
,,0.36,"[-4.5, 0]",/sounds/legit/left70.wav,,,,,5,6,181,27,,,,,,,,,,,,,,,left,0.235225200653,,,,,participant14,24,59.6985966011,M,trial,2017_May_28_1755,
,,0.1,"[4.5, 0]",/sounds/legit/right70.wav,,,,,5,7,182,10,,,,,,,,,,,,,,,right,0.502313137054,,,,,participant14,24,59.6985966011,M,trial,2017_May_28_1755,
,,0.62,"[-2.25, 0]",/sounds/legit/left35.wav,,,,,5,8,183,24,,,,,,,,,,,,,,,left,0.636023044586,,,,,participant14,24,59.6985966011,M,trial,2017_May_28_1755,
,,0.1,"[0, 0]",/sounds/legit/equal.wav,,,,,5,9,184,0,,,,,,,,,,,,,,,right,0.635716199875,,,,,participant14,24,59.6985966011,M,trial,2017_May_28_1755,
,,0.23,"[2.25, 0]",/sounds/legit/right35.wav,,,,,5,10,185,6,,,,,,,,,,,,,,,right,0.469021081924,,,,,participant14,24,59.6985966011,M,trial,2017_May_28_1755,
,,0.23,"[4.5, 0]",/sounds/legit/right70.wav,,,,,5,11,186,11,,,,,,,,,,,,,,,right,0.469208955765,,,,,participant14,24,59.6985966011,M,trial,2017_May_28_1755,
,,0.49,"[-2.25, 0]",/sounds/legit/left35.wav,,,,,5,12,187,23,,,,,,,,,,,,,,,left,0.585110187531,,,,,participant14,24,59.6985966011,M,trial,2017_May_28_1755,
,,0.62,"[2.25, 0]",/sounds/legit/right35.wav,,,,,5,13,188,9,,,,,,,,,,,,,,,right,0.636096000671,,,,,participant14,24,59.6985966011,M,trial,2017_May_28_1755,
,,0.36,"[4.5, 0]",/sounds/legit/right70.wav,,,,,5,14,189,12,,,,,,,,,,,,,,,right,0.50236582756,,,,,participant14,24,59.6985966011,M,trial,2017_May_28_1755,
,,0.36,"[6.75, 0]",/sounds/legit/right100.wav,,,,,5,15,190,17,,,,,,,,,,,,,,,right,0.285412073135,,,,,participant14,24,59.6985966011,M,trial,2017_May_28_1755,
,,0.49,"[6.75, 0]",/sounds/legit/right100.wav,,,,,5,16,191,18,,,,,,,,,,,,,,,right,0.402069807053,,,,,participant14,24,59.6985966011,M,trial,2017_May_28_1755,
,,0.1,"[-2.25, 0]",/sounds/legit/left35.wav,,,,,5,17,192,20,,,,,,,,,,,,,,,left,0.502660989761,,,,,participant14,24,59.6985966011,M,trial,2017_May_28_1755,
,,0.23,"[6.75, 0]",/sounds/legit/right100.wav,,,,,5,18,193,16,,,,,,,,,,,,,,,right,0.519352912903,,,,,participant14,24,59.6985966011,M,trial,2017_May_28_1755,
,,0.49,"[2.25, 0]",/sounds/legit/right35.wav,,,,,5,19,194,8,,,,,,,,,,,,,,,right,0.619423866272,,,,,participant14,24,59.6985966011,M,trial,2017_May_28_1755,
,,0.49,"[-4.5, 0]",/sounds/legit/left70.wav,,,,,5,20,195,28,,,,,,,,,,,,,,,left,0.686137914658,,,,,participant14,24,59.6985966011,M,trial,2017_May_28_1755,
,,0.23,"[-4.5, 0]",/sounds/legit/left70.wav,,,,,5,21,196,26,,,,,,,,,,,,,,,left,0.619153022766,,,,,participant14,24,59.6985966011,M,trial,2017_May_28_1755,
,,0.23,"[0, 0]",/sounds/legit/equal.wav,,,,,5,22,197,1,,,,,,,,,,,,,,,left,0.7528860569,,,,,participant14,24,59.6985966011,M,trial,2017_May_28_1755,
,,0.49,"[-6.75, 0]",/sounds/legit/left100.wav,,,,,5,23,198,33,,,,,,,,,,,,,,,left,1.08670806885,,,,,participant14,24,59.6985966011,M,trial,2017_May_28_1755,
,,0.36,"[2.25, 0]",/sounds/legit/right35.wav,,,,,5,24,199,7,,,,,,,,,,,,,,,right,0.868865966797,,,,,participant14,24,59.6985966011,M,trial,2017_May_28_1755,
,,0.36,"[-6.75, 0]",/sounds/legit/left100.wav,,,,,5,25,200,32,,,,,,,,,,,,,,,left,0.552488803864,,,,,participant14,24,59.6985966011,M,trial,2017_May_28_1755,
,,0.62,"[4.5, 0]",/sounds/legit/right70.wav,,,,,5,26,201,14,,,,,,,,,,,,,,,right,0.535709857941,,,,,participant14,24,59.6985966011,M,trial,2017_May_28_1755,
,,0.1,"[-4.5, 0]",/sounds/legit/left70.wav,,,,,5,27,202,25,,,,,,,,,,,,,,,left,0.586213111877,,,,,participant14,24,59.6985966011,M,trial,2017_May_28_1755,
,,0.62,"[0, 0]",/sounds/legit/equal.wav,,,,,5,28,203,4,,,,,,,,,,,,,,,left,0.75337100029,,,,,participant14,24,59.6985966011,M,trial,2017_May_28_1755,
,,0.49,"[4.5, 0]",/sounds/legit/right70.wav,,,,,5,29,204,13,,,,,,,,,,,,,,,right,0.602791070938,,,,,participant14,24,59.6985966011,M,trial,2017_May_28_1755,
,,0.62,"[-6.75, 0]",/sounds/legit/left100.wav,,,,,5,30,205,34,,,,,,,,,,,,,,,left,0.652935028076,,,,,participant14,24,59.6985966011,M,trial,2017_May_28_1755,
,,0.36,"[0, 0]",/sounds/legit/equal.wav,,,,,5,31,206,2,,,,,,,,,,,,,,,left,0.552266120911,,,,,participant14,24,59.6985966011,M,trial,2017_May_28_1755,
,,0.62,"[-4.5, 0]",/sounds/legit/left70.wav,,,,,5,32,207,29,,,,,,,,,,,,,,,left,0.56917309761,,,,,participant14,24,59.6985966011,M,trial,2017_May_28_1755,
,,0.1,"[6.75, 0]",/sounds/legit/right100.wav,,,,,5,33,208,15,,,,,,,,,,,,,,,right,0.602666139603,,,,,participant14,24,59.6985966011,M,trial,2017_May_28_1755,
,,0.23,"[-6.75, 0]",/sounds/legit/left100.wav,,,,,5,34,209,31,,,,,,,,,,,,,,,left,0.736356019974,,,,,participant14,24,59.6985966011,M,trial,2017_May_28_1755,
,,0.23,"[2.25, 0]",/sounds/legit/right35.wav,,,,,6,0,210,6,,,,,,,,,,,,,,,right,0.418874979019,,,,,participant14,24,59.6985966011,M,trial,2017_May_28_1755,
,,0.23,"[0, 0]",/sounds/legit/equal.wav,,,,,6,1,211,1,,,,,,,,,,,,,,,left,0.402237892151,,,,,participant14,24,59.6985966011,M,trial,2017_May_28_1755,
,,0.62,"[2.25, 0]",/sounds/legit/right35.wav,,,,,6,2,212,9,,,,,,,,,,,,,,,right,0.502567052841,,,,,participant14,24,59.6985966011,M,trial,2017_May_28_1755,
,,0.62,"[-2.25, 0]",/sounds/legit/left35.wav,,,,,6,3,213,24,,,,,,,,,,,,,,,left,0.335383176804,,,,,participant14,24,59.6985966011,M,trial,2017_May_28_1755,
,,0.36,"[2.25, 0]",/sounds/legit/right35.wav,,,,,6,4,214,7,,,,,,,,,,,,,,,right,0.335462093353,,,,,participant14,24,59.6985966011,M,trial,2017_May_28_1755,
,,0.62,"[4.5, 0]",/sounds/legit/right70.wav,,,,,6,5,215,14,,,,,,,,,,,,,,,left,7.70112895966,,,,,participant14,24,59.6985966011,M,trial,2017_May_28_1755,
,,0.1,"[2.25, 0]",/sounds/legit/right35.wav,,,,,6,6,216,5,,,,,,,,,,,,,,,right,0.385353088379,,,,,participant14,24,59.6985966011,M,trial,2017_May_28_1755,
,,0.49,"[-6.75, 0]",/sounds/legit/left100.wav,,,,,6,7,217,33,,,,,,,,,,,,,,,left,0.60250711441,,,,,participant14,24,59.6985966011,M,trial,2017_May_28_1755,
,,0.36,"[4.5, 0]",/sounds/legit/right70.wav,,,,,6,8,218,12,,,,,,,,,,,,,,,right,0.368741035461,,,,,participant14,24,59.6985966011,M,trial,2017_May_28_1755,
,,0.36,"[6.75, 0]",/sounds/legit/right100.wav,,,,,6,9,219,17,,,,,,,,,,,,,,,right,1.10375380516,,,,,participant14,24,59.6985966011,M,trial,2017_May_28_1755,
,,0.1,"[-2.25, 0]",/sounds/legit/left35.wav,,,,,6,10,220,20,,,,,,,,,,,,,,,left,0.419247865677,,,,,participant14,24,59.6985966011,M,trial,2017_May_28_1755,
,,0.23,"[4.5, 0]",/sounds/legit/right70.wav,,,,,6,11,221,11,,,,,,,,,,,,,,,right,0.318773031235,,,,,participant14,24,59.6985966011,M,trial,2017_May_28_1755,
,,0.62,"[0, 0]",/sounds/legit/equal.wav,,,,,6,12,222,4,,,,,,,,,,,,,,,left,1.6713988781,,,,,participant14,24,59.6985966011,M,trial,2017_May_28_1755,
,,0.36,"[-6.75, 0]",/sounds/legit/left100.wav,,,,,6,13,223,32,,,,,,,,,,,,,,,left,0.485754013062,,,,,participant14,24,59.6985966011,M,trial,2017_May_28_1755,
,,0.49,"[0, 0]",/sounds/legit/equal.wav,,,,,6,14,224,3,,,,,,,,,,,,,,,left,0.786482810974,,,,,participant14,24,59.6985966011,M,trial,2017_May_28_1755,
,,0.36,"[-4.5, 0]",/sounds/legit/left70.wav,,,,,6,15,225,27,,,,,,,,,,,,,,,left,0.60263800621,,,,,participant14,24,59.6985966011,M,trial,2017_May_28_1755,
,,0.23,"[6.75, 0]",/sounds/legit/right100.wav,,,,,6,16,226,16,,,,,,,,,,,,,,,right,0.469130039215,,,,,participant14,24,59.6985966011,M,trial,2017_May_28_1755,
,,0.62,"[-6.75, 0]",/sounds/legit/left100.wav,,,,,6,17,227,34,,,,,,,,,,,,,,,left,0.752997875214,,,,,participant14,24,59.6985966011,M,trial,2017_May_28_1755,
,,0.23,"[-4.5, 0]",/sounds/legit/left70.wav,,,,,6,18,228,26,,,,,,,,,,,,,,,left,0.652956008911,,,,,participant14,24,59.6985966011,M,trial,2017_May_28_1755,
,,0.23,"[-6.75, 0]",/sounds/legit/left100.wav,,,,,6,19,229,31,,,,,,,,,,,,,,,left,0.753296136856,,,,,participant14,24,59.6985966011,M,trial,2017_May_28_1755,
,,0.1,"[-6.75, 0]",/sounds/legit/left100.wav,,,,,6,20,230,30,,,,,,,,,,,,,,,left,1.47094106674,,,,,participant14,24,59.6985966011,M,trial,2017_May_28_1755,
,,0.1,"[6.75, 0]",/sounds/legit/right100.wav,,,,,6,21,231,15,,,,,,,,,,,,,,,left,2.35638189316,,,,,participant14,24,59.6985966011,M,trial,2017_May_28_1755,
,,0.1,"[0, 0]",/sounds/legit/equal.wav,,,,,6,22,232,0,,,,,,,,,,,,,,,left,1.88900494576,,,,,participant14,24,59.6985966011,M,trial,2017_May_28_1755,
,,0.49,"[2.25, 0]",/sounds/legit/right35.wav,,,,,6,23,233,8,,,,,,,,,,,,,,,right,0.352119922638,,,,,participant14,24,59.6985966011,M,trial,2017_May_28_1755,
,,0.36,"[0, 0]",/sounds/legit/equal.wav,,,,,6,24,234,2,,,,,,,,,,,,,,,left,0.519175052643,,,,,participant14,24,59.6985966011,M,trial,2017_May_28_1755,
,,0.23,"[-2.25, 0]",/sounds/legit/left35.wav,,,,,6,25,235,21,,,,,,,,,,,,,,,left,5.11248087883,,,,,participant14,24,59.6985966011,M,trial,2017_May_28_1755,
,,0.1,"[4.5, 0]",/sounds/legit/right70.wav,,,,,6,26,236,10,,,,,,,,,,,,,,,right,1.020362854,,,,,participant14,24,59.6985966011,M,trial,2017_May_28_1755,
,,0.49,"[-2.25, 0]",/sounds/legit/left35.wav,,,,,6,27,237,23,,,,,,,,,,,,,,,left,1.9557621479,,,,,participant14,24,59.6985966011,M,trial,2017_May_28_1755,
,,0.1,"[-4.5, 0]",/sounds/legit/left70.wav,,,,,6,28,238,25,,,,,,,,,,,,,,,left,0.285269021988,,,,,participant14,24,59.6985966011,M,trial,2017_May_28_1755,
,,0.49,"[4.5, 0]",/sounds/legit/right70.wav,,,,,6,29,239,13,,,,,,,,,,,,,,,right,0.368521928787,,,,,participant14,24,59.6985966011,M,trial,2017_May_28_1755,
,,0.36,"[-2.25, 0]",/sounds/legit/left35.wav,,,,,6,30,240,22,,,,,,,,,,,,,,,left,0.586129188538,,,,,participant14,24,59.6985966011,M,trial,2017_May_28_1755,
,,0.62,"[6.75, 0]",/sounds/legit/right100.wav,,,,,6,31,241,19,,,,,,,,,,,,,,,left,0.752992153168,,,,,participant14,24,59.6985966011,M,trial,2017_May_28_1755,
,,0.62,"[-4.5, 0]",/sounds/legit/left70.wav,,,,,6,32,242,29,,,,,,,,,,,,,,,left,0.853322029114,,,,,participant14,24,59.6985966011,M,trial,2017_May_28_1755,
,,0.49,"[6.75, 0]",/sounds/legit/right100.wav,,,,,6,33,243,18,,,,,,,,,,,,,,,right,1.38767886162,,,,,participant14,24,59.6985966011,M,trial,2017_May_28_1755,
,,0.49,"[-4.5, 0]",/sounds/legit/left70.wav,,,,,6,34,244,28,,,,,,,,,,,,,,,left,2.84075403214,,,,,participant14,24,59.6985966011,M,trial,2017_May_28_1755,
,,0.49,"[4.5, 0]",/sounds/legit/right70.wav,,,,,7,0,245,13,,,,,,,,,,,,,,,right,0.352043867111,,,,,participant14,24,59.6985966011,M,trial,2017_May_28_1755,
,,0.62,"[6.75, 0]",/sounds/legit/right100.wav,,,,,7,1,246,19,,,,,,,,,,,,,,,right,0.552417039871,,,,,participant14,24,59.6985966011,M,trial,2017_May_28_1755,
,,0.36,"[4.5, 0]",/sounds/legit/right70.wav,,,,,7,2,247,12,,,,,,,,,,,,,,,right,0.235310077667,,,,,participant14,24,59.6985966011,M,trial,2017_May_28_1755,
,,0.36,"[2.25, 0]",/sounds/legit/right35.wav,,,,,7,3,248,7,,,,,,,,,,,,,,,right,0.435333967209,,,,,participant14,24,59.6985966011,M,trial,2017_May_28_1755,
,,0.62,"[4.5, 0]",/sounds/legit/right70.wav,,,,,7,4,249,14,,,,,,,,,,,,,,,right,0.368912935257,,,,,participant14,24,59.6985966011,M,trial,2017_May_28_1755,
,,0.36,"[-4.5, 0]",/sounds/legit/left70.wav,,,,,7,5,250,27,,,,,,,,,,,,,,,left,0.201712846756,,,,,participant14,24,59.6985966011,M,trial,2017_May_28_1755,
,,0.36,"[-2.25, 0]",/sounds/legit/left35.wav,,,,,7,6,251,22,,,,,,,,,,,,,,,left,0.10142493248,,,,,participant14,24,59.6985966011,M,trial,2017_May_28_1755,
,,0.49,"[-6.75, 0]",/sounds/legit/left100.wav,,,,,7,7,252,33,,,,,,,,,,,,,,,left,0.21852517128,,,,,participant14,24,59.6985966011,M,trial,2017_May_28_1755,
,,0.23,"[2.25, 0]",/sounds/legit/right35.wav,,,,,7,8,253,6,,,,,,,,,,,,,,,right,0.302114963531,,,,,participant14,24,59.6985966011,M,trial,2017_May_28_1755,
,,0.23,"[-2.25, 0]",/sounds/legit/left35.wav,,,,,7,9,254,21,,,,,,,,,,,,,,,left,0.368561983109,,,,,participant14,24,59.6985966011,M,trial,2017_May_28_1755,
,,0.62,"[-4.5, 0]",/sounds/legit/left70.wav,,,,,7,10,255,29,,,,,,,,,,,,,,,left,1.67187094688,,,,,participant14,24,59.6985966011,M,trial,2017_May_28_1755,
,,0.36,"[6.75, 0]",/sounds/legit/right100.wav,,,,,7,11,256,17,,,,,,,,,,,,,,,right,0.335553884506,,,,,participant14,24,59.6985966011,M,trial,2017_May_28_1755,
,,0.1,"[0, 0]",/sounds/legit/equal.wav,,,,,7,12,257,0,,,,,,,,,,,,,,,left,2.69048714638,,,,,participant14,24,59.6985966011,M,trial,2017_May_28_1755,
,,0.49,"[0, 0]",/sounds/legit/equal.wav,,,,,7,13,258,3,,,,,,,,,,,,,,,left,0.285565137863,,,,,participant14,24,59.6985966011,M,trial,2017_May_28_1755,
,,0.1,"[6.75, 0]",/sounds/legit/right100.wav,,,,,7,14,259,15,,,,,,,,,,,,,,,right,0.301925897598,,,,,participant14,24,59.6985966011,M,trial,2017_May_28_1755,
,,0.36,"[0, 0]",/sounds/legit/equal.wav,,,,,7,15,260,2,,,,,,,,,,,,,,,left,0.819654941559,,,,,participant14,24,59.6985966011,M,trial,2017_May_28_1755,
,,0.1,"[-6.75, 0]",/sounds/legit/left100.wav,,,,,7,16,261,30,,,,,,,,,,,,,,,left,1.18740296364,,,,,participant14,24,59.6985966011,M,trial,2017_May_28_1755,
,,0.49,"[-2.25, 0]",/sounds/legit/left35.wav,,,,,7,17,262,23,,,,,,,,,,,,,,,left,0.402323007584,,,,,participant14,24,59.6985966011,M,trial,2017_May_28_1755,
,,0.23,"[6.75, 0]",/sounds/legit/right100.wav,,,,,7,18,263,16,,,,,,,,,,,,,,,right,0.3517370224,,,,,participant14,24,59.6985966011,M,trial,2017_May_28_1755,
,,0.49,"[-4.5, 0]",/sounds/legit/left70.wav,,,,,7,19,264,28,,,,,,,,,,,,,,,left,0.452328205109,,,,,participant14,24,59.6985966011,M,trial,2017_May_28_1755,
,,0.1,"[4.5, 0]",/sounds/legit/right70.wav,,,,,7,20,265,10,,,,,,,,,,,,,,,right,0.402328968048,,,,,participant14,24,59.6985966011,M,trial,2017_May_28_1755,
,,0.62,"[-2.25, 0]",/sounds/legit/left35.wav,,,,,7,21,266,24,,,,,,,,,,,,,,,left,0.318404912949,,,,,participant14,24,59.6985966011,M,trial,2017_May_28_1755,
,,0.62,"[2.25, 0]",/sounds/legit/right35.wav,,,,,7,22,267,9,,,,,,,,,,,,,,,right,0.869151115417,,,,,participant14,24,59.6985966011,M,trial,2017_May_28_1755,
,,0.49,"[6.75, 0]",/sounds/legit/right100.wav,,,,,7,23,268,18,,,,,,,,,,,,,,,right,0.435678005219,,,,,participant14,24,59.6985966011,M,trial,2017_May_28_1755,
,,0.36,"[-6.75, 0]",/sounds/legit/left100.wav,,,,,7,24,269,32,,,,,,,,,,,,,,,left,0.419325113297,,,,,participant14,24,59.6985966011,M,trial,2017_May_28_1755,
,,0.23,"[4.5, 0]",/sounds/legit/right70.wav,,,,,7,25,270,11,,,,,,,,,,,,,,,right,0.419008016586,,,,,participant14,24,59.6985966011,M,trial,2017_May_28_1755,
,,0.1,"[2.25, 0]",/sounds/legit/right35.wav,,,,,7,26,271,5,,,,,,,,,,,,,,,right,0.351976156235,,,,,participant14,24,59.6985966011,M,trial,2017_May_28_1755,
,,0.1,"[-2.25, 0]",/sounds/legit/left35.wav,,,,,7,27,272,20,,,,,,,,,,,,,,,left,0.20201086998,,,,,participant14,24,59.6985966011,M,trial,2017_May_28_1755,
,,0.23,"[-6.75, 0]",/sounds/legit/left100.wav,,,,,7,28,273,31,,,,,,,,,,,,,,,left,0.43545794487,,,,,participant14,24,59.6985966011,M,trial,2017_May_28_1755,
,,0.49,"[2.25, 0]",/sounds/legit/right35.wav,,,,,7,29,274,8,,,,,,,,,,,,,,,right,0.385300159454,,,,,participant14,24,59.6985966011,M,trial,2017_May_28_1755,
,,0.1,"[-4.5, 0]",/sounds/legit/left70.wav,,,,,7,30,275,25,,,,,,,,,,,,,,,left,0.418864011765,,,,,participant14,24,59.6985966011,M,trial,2017_May_28_1755,
,,0.23,"[-4.5, 0]",/sounds/legit/left70.wav,,,,,7,31,276,26,,,,,,,,,,,,,,,left,0.235276937485,,,,,participant14,24,59.6985966011,M,trial,2017_May_28_1755,
,,0.62,"[-6.75, 0]",/sounds/legit/left100.wav,,,,,7,32,277,34,,,,,,,,,,,,,,,left,0.268425941467,,,,,participant14,24,59.6985966011,M,trial,2017_May_28_1755,
,,0.23,"[0, 0]",/sounds/legit/equal.wav,,,,,7,33,278,1,,,,,,,,,,,,,,,left,0.351987123489,,,,,participant14,24,59.6985966011,M,trial,2017_May_28_1755,
,,0.62,"[0, 0]",/sounds/legit/equal.wav,,,,,7,34,279,4,,,,,,,,,,,,,,,left,0.235281944275,,,,,participant14,24,59.6985966011,M,trial,2017_May_28_1755,
,,0.23,"[2.25, 0]",/sounds/legit/right35.wav,,,,,8,0,280,6,,,,,,,,,,,,,,,right,0.352139949799,,,,,participant14,24,59.6985966011,M,trial,2017_May_28_1755,
,,0.49,"[0, 0]",/sounds/legit/equal.wav,,,,,8,1,281,3,,,,,,,,,,,,,,,left,0.435657024384,,,,,participant14,24,59.6985966011,M,trial,2017_May_28_1755,
,,0.36,"[2.25, 0]",/sounds/legit/right35.wav,,,,,8,2,282,7,,,,,,,,,,,,,,,right,0.936444044113,,,,,participant14,24,59.6985966011,M,trial,2017_May_28_1755,
,,0.49,"[-6.75, 0]",/sounds/legit/left100.wav,,,,,8,3,283,33,,,,,,,,,,,,,,,left,0.368806838989,,,,,participant14,24,59.6985966011,M,trial,2017_May_28_1755,
,,0.49,"[6.75, 0]",/sounds/legit/right100.wav,,,,,8,4,284,18,,,,,,,,,,,,,,,right,0.268573999405,,,,,participant14,24,59.6985966011,M,trial,2017_May_28_1755,
,,0.49,"[4.5, 0]",/sounds/legit/right70.wav,,,,,8,5,285,13,,,,,,,,,,,,,,,right,0.303040981293,,,,,participant14,24,59.6985966011,M,trial,2017_May_28_1755,
,,0.1,"[-2.25, 0]",/sounds/legit/left35.wav,,,,,8,6,286,20,,,,,,,,,,,,,,,left,0.351985931396,,,,,participant14,24,59.6985966011,M,trial,2017_May_28_1755,
,,0.36,"[-4.5, 0]",/sounds/legit/left70.wav,,,,,8,7,287,27,,,,,,,,,,,,,,,left,0.118483066559,,,,,participant14,24,59.6985966011,M,trial,2017_May_28_1755,
,,0.36,"[0, 0]",/sounds/legit/equal.wav,,,,,8,8,288,2,,,,,,,,,,,,,,,left,0.986585855484,,,,,participant14,24,59.6985966011,M,trial,2017_May_28_1755,
,,0.1,"[6.75, 0]",/sounds/legit/right100.wav,,,,,8,9,289,15,,,,,,,,,,,,,,,left,1.25429415703,,,,,participant14,24,59.6985966011,M,trial,2017_May_28_1755,
,,0.23,"[-2.25, 0]",/sounds/legit/left35.wav,,,,,8,10,290,21,,,,,,,,,,,,,,,left,0.402264118195,,,,,participant14,24,59.6985966011,M,trial,2017_May_28_1755,
,,0.23,"[-6.75, 0]",/sounds/legit/left100.wav,,,,,8,11,291,31,,,,,,,,,,,,,,,left,0.0847148895264,,,,,participant14,24,59.6985966011,M,trial,2017_May_28_1755,
,,0.62,"[-4.5, 0]",/sounds/legit/left70.wav,,,,,8,12,292,29,,,,,,,,,,,,,,,left,0.469094991684,,,,,participant14,24,59.6985966011,M,trial,2017_May_28_1755,
,,0.1,"[-6.75, 0]",/sounds/legit/left100.wav,,,,,8,13,293,30,,,,,,,,,,,,,,,left,1.07036399841,,,,,participant14,24,59.6985966011,M,trial,2017_May_28_1755,
,,0.49,"[-2.25, 0]",/sounds/legit/left35.wav,,,,,8,14,294,23,,,,,,,,,,,,,,,left,0.402266979218,,,,,participant14,24,59.6985966011,M,trial,2017_May_28_1755,
,,0.62,"[6.75, 0]",/sounds/legit/right100.wav,,,,,8,15,295,19,,,,,,,,,,,,,,,right,0.402047157288,,,,,participant14,24,59.6985966011,M,trial,2017_May_28_1755,
,,0.23,"[-4.5, 0]",/sounds/legit/left70.wav,,,,,8,16,296,26,,,,,,,,,,,,,,,left,0.920181035995,,,,,participant14,24,59.6985966011,M,trial,2017_May_28_1755,
,,0.62,"[0, 0]",/sounds/legit/equal.wav,,,,,8,17,297,4,,,,,,,,,,,,,,,left,0.353493213654,,,,,participant14,24,59.6985966011,M,trial,2017_May_28_1755,
,,0.23,"[6.75, 0]",/sounds/legit/right100.wav,,,,,8,18,298,16,,,,,,,,,,,,,,,right,0.519236803055,,,,,participant14,24,59.6985966011,M,trial,2017_May_28_1755,
,,0.36,"[6.75, 0]",/sounds/legit/right100.wav,,,,,8,19,299,17,,,,,,,,,,,,,,,right,0.953197002411,,,,,participant14,24,59.6985966011,M,trial,2017_May_28_1755,
,,0.1,"[-4.5, 0]",/sounds/legit/left70.wav,,,,,8,20,300,25,,,,,,,,,,,,,,,right,2.18837285042,,,,,participant14,24,59.6985966011,M,trial,2017_May_28_1755,
,,0.36,"[-6.75, 0]",/sounds/legit/left100.wav,,,,,8,21,301,32,,,,,,,,,,,,,,,left,0.903522968292,,,,,participant14,24,59.6985966011,M,trial,2017_May_28_1755,
,,0.36,"[-2.25, 0]",/sounds/legit/left35.wav,,,,,8,22,302,22,,,,,,,,,,,,,,,right,2.03896594048,,,,,participant14,24,59.6985966011,M,trial,2017_May_28_1755,
,,0.1,"[2.25, 0]",/sounds/legit/right35.wav,,,,,8,23,303,5,,,,,,,,,,,,,,,right,2.28957390785,,,,,participant14,24,59.6985966011,M,trial,2017_May_28_1755,
,,0.62,"[-2.25, 0]",/sounds/legit/left35.wav,,,,,8,24,304,24,,,,,,,,,,,,,,,right,2.4899969101,,,,,participant14,24,59.6985966011,M,trial,2017_May_28_1755,
,,0.23,"[4.5, 0]",/sounds/legit/right70.wav,,,,,8,25,305,11,,,,,,,,,,,,,,,right,1.20376420021,,,,,participant14,24,59.6985966011,M,trial,2017_May_28_1755,
,,0.1,"[4.5, 0]",/sounds/legit/right70.wav,,,,,8,26,306,10,,,,,,,,,,,,,,,right,6.51552700996,,,,,participant14,24,59.6985966011,M,trial,2017_May_28_1755,
,,0.49,"[-4.5, 0]",/sounds/legit/left70.wav,,,,,8,27,307,28,,,,,,,,,,,,,,,left,1.00369596481,,,,,participant14,24,59.6985966011,M,trial,2017_May_28_1755,
,,0.36,"[4.5, 0]",/sounds/legit/right70.wav,,,,,8,28,308,12,,,,,,,,,,,,,,,right,0.735933065414,,,,,participant14,24,59.6985966011,M,trial,2017_May_28_1755,
,,0.49,"[2.25, 0]",/sounds/legit/right35.wav,,,,,8,29,309,8,,,,,,,,,,,,,,,right,0.686069011688,,,,,participant14,24,59.6985966011,M,trial,2017_May_28_1755,
,,0.62,"[2.25, 0]",/sounds/legit/right35.wav,,,,,8,30,310,9,,,,,,,,,,,,,,,right,0.903359174728,,,,,participant14,24,59.6985966011,M,trial,2017_May_28_1755,
,,0.1,"[0, 0]",/sounds/legit/equal.wav,,,,,8,31,311,0,,,,,,,,,,,,,,,left,0.786140918732,,,,,participant14,24,59.6985966011,M,trial,2017_May_28_1755,
,,0.62,"[4.5, 0]",/sounds/legit/right70.wav,,,,,8,32,312,14,,,,,,,,,,,,,,,left,0.970072984695,,,,,participant14,24,59.6985966011,M,trial,2017_May_28_1755,
,,0.62,"[-6.75, 0]",/sounds/legit/left100.wav,,,,,8,33,313,34,,,,,,,,,,,,,,,left,0.819876909256,,,,,participant14,24,59.6985966011,M,trial,2017_May_28_1755,
,,0.23,"[0, 0]",/sounds/legit/equal.wav,,,,,8,34,314,1,,,,,,,,,,,,,,,left,0.552062988281,,,,,participant14,24,59.6985966011,M,trial,2017_May_28_1755,
,,0.49,"[4.5, 0]",/sounds/legit/right70.wav,,,,,9,0,315,13,,,,,,,,,,,,,,,right,0.95330619812,,,,,participant14,24,59.6985966011,M,trial,2017_May_28_1755,
,,0.49,"[-2.25, 0]",/sounds/legit/left35.wav,,,,,9,1,316,23,,,,,,,,,,,,,,,left,0.569015979767,,,,,participant14,24,59.6985966011,M,trial,2017_May_28_1755,
,,0.49,"[6.75, 0]",/sounds/legit/right100.wav,,,,,9,2,317,18,,,,,,,,,,,,,,,right,0.519053220749,,,,,participant14,24,59.6985966011,M,trial,2017_May_28_1755,
,,0.23,"[4.5, 0]",/sounds/legit/right70.wav,,,,,9,3,318,11,,,,,,,,,,,,,,,right,0.585911989212,,,,,participant14,24,59.6985966011,M,trial,2017_May_28_1755,
,,0.36,"[-6.75, 0]",/sounds/legit/left100.wav,,,,,9,4,319,32,,,,,,,,,,,,,,,left,0.635983943939,,,,,participant14,24,59.6985966011,M,trial,2017_May_28_1755,
,,0.36,"[6.75, 0]",/sounds/legit/right100.wav,,,,,9,5,320,17,,,,,,,,,,,,,,,right,0.686089992523,,,,,participant14,24,59.6985966011,M,trial,2017_May_28_1755,
,,0.62,"[6.75, 0]",/sounds/legit/right100.wav,,,,,9,6,321,19,,,,,,,,,,,,,,,right,17.923199892,,,,,participant14,24,59.6985966011,M,trial,2017_May_28_1755,
,,0.23,"[0, 0]",/sounds/legit/equal.wav,,,,,9,7,322,1,,,,,,,,,,,,,,,left,0.685970067978,,,,,participant14,24,59.6985966011,M,trial,2017_May_28_1755,
,,0.49,"[2.25, 0]",/sounds/legit/right35.wav,,,,,9,8,323,8,,,,,,,,,,,,,,,right,0.185003995895,,,,,participant14,24,59.6985966011,M,trial,2017_May_28_1755,
,,0.62,"[-4.5, 0]",/sounds/legit/left70.wav,,,,,9,9,324,29,,,,,,,,,,,,,,,left,2.03906202316,,,,,participant14,24,59.6985966011,M,trial,2017_May_28_1755,
,,0.49,"[0, 0]",/sounds/legit/equal.wav,,,,,9,10,325,3,,,,,,,,,,,,,,,right,0.535708904266,,,,,participant14,24,59.6985966011,M,trial,2017_May_28_1755,
,,0.36,"[-4.5, 0]",/sounds/legit/left70.wav,,,,,9,11,326,27,,,,,,,,,,,,,,,left,0.302073001862,,,,,participant14,24,59.6985966011,M,trial,2017_May_28_1755,
,,0.36,"[2.25, 0]",/sounds/legit/right35.wav,,,,,9,12,327,7,,,,,,,,,,,,,,,right,0.468789100647,,,,,participant14,24,59.6985966011,M,trial,2017_May_28_1755,
,,0.23,"[6.75, 0]",/sounds/legit/right100.wav,,,,,9,13,328,16,,,,,,,,,,,,,,,right,0.552544116974,,,,,participant14,24,59.6985966011,M,trial,2017_May_28_1755,
,,0.1,"[-2.25, 0]",/sounds/legit/left35.wav,,,,,9,14,329,20,,,,,,,,,,,,,,,left,0.519142866135,,,,,participant14,24,59.6985966011,M,trial,2017_May_28_1755,
,,0.1,"[2.25, 0]",/sounds/legit/right35.wav,,,,,9,15,330,5,,,,,,,,,,,,,,,right,0.484713077545,,,,,participant14,24,59.6985966011,M,trial,2017_May_28_1755,
,,0.36,"[-2.25, 0]",/sounds/legit/left35.wav,,,,,9,16,331,22,,,,,,,,,,,,,,,left,0.435575962067,,,,,participant14,24,59.6985966011,M,trial,2017_May_28_1755,
,,0.1,"[-4.5, 0]",/sounds/legit/left70.wav,,,,,9,17,332,25,,,,,,,,,,,,,,,left,0.786280155182,,,,,participant14,24,59.6985966011,M,trial,2017_May_28_1755,
,,0.36,"[4.5, 0]",/sounds/legit/right70.wav,,,,,9,18,333,12,,,,,,,,,,,,,,,right,0.435545921326,,,,,participant14,24,59.6985966011,M,trial,2017_May_28_1755,
,,0.1,"[-6.75, 0]",/sounds/legit/left100.wav,,,,,9,19,334,30,,,,,,,,,,,,,,,left,3.85963797569,,,,,participant14,24,59.6985966011,M,trial,2017_May_28_1755,
,,0.1,"[0, 0]",/sounds/legit/equal.wav,,,,,9,20,335,0,,,,,,,,,,,,,,,left,1.0537250042,,,,,participant14,24,59.6985966011,M,trial,2017_May_28_1755,
,,0.62,"[0, 0]",/sounds/legit/equal.wav,,,,,9,21,336,4,,,,,,,,,,,,,,,right,0.619354009628,,,,,participant14,24,59.6985966011,M,trial,2017_May_28_1755,
,,0.62,"[-6.75, 0]",/sounds/legit/left100.wav,,,,,9,22,337,34,,,,,,,,,,,,,,,left,0.585927963257,,,,,participant14,24,59.6985966011,M,trial,2017_May_28_1755,
,,0.62,"[-2.25, 0]",/sounds/legit/left35.wav,,,,,9,23,338,24,,,,,,,,,,,,,,,left,0.285244941711,,,,,participant14,24,59.6985966011,M,trial,2017_May_28_1755,
,,0.49,"[-4.5, 0]",/sounds/legit/left70.wav,,,,,9,24,339,28,,,,,,,,,,,,,,,left,0.251646995544,,,,,participant14,24,59.6985966011,M,trial,2017_May_28_1755,
,,0.23,"[-4.5, 0]",/sounds/legit/left70.wav,,,,,9,25,340,26,,,,,,,,,,,,,,,left,1.48780202866,,,,,participant14,24,59.6985966011,M,trial,2017_May_28_1755,
,,0.62,"[4.5, 0]",/sounds/legit/right70.wav,,,,,9,26,341,14,,,,,,,,,,,,,,,right,0.435720920563,,,,,participant14,24,59.6985966011,M,trial,2017_May_28_1755,
,,0.49,"[-6.75, 0]",/sounds/legit/left100.wav,,,,,9,27,342,33,,,,,,,,,,,,,,,left,0.56914806366,,,,,participant14,24,59.6985966011,M,trial,2017_May_28_1755,
,,0.36,"[0, 0]",/sounds/legit/equal.wav,,,,,9,28,343,2,,,,,,,,,,,,,,,left,1.22064590454,,,,,participant14,24,59.6985966011,M,trial,2017_May_28_1755,
,,0.1,"[6.75, 0]",/sounds/legit/right100.wav,,,,,9,29,344,15,,,,,,,,,,,,,,,right,0.301832914352,,,,,participant14,24,59.6985966011,M,trial,2017_May_28_1755,
,,0.62,"[2.25, 0]",/sounds/legit/right35.wav,,,,,9,30,345,9,,,,,,,,,,,,,,,right,0.285348176956,,,,,participant14,24,59.6985966011,M,trial,2017_May_28_1755,
,,0.23,"[2.25, 0]",/sounds/legit/right35.wav,,,,,9,31,346,6,,,,,,,,,,,,,,,right,0.585755109787,,,,,participant14,24,59.6985966011,M,trial,2017_May_28_1755,
,,0.23,"[-6.75, 0]",/sounds/legit/left100.wav,,,,,9,32,347,31,,,,,,,,,,,,,,,left,0.41918182373,,,,,participant14,24,59.6985966011,M,trial,2017_May_28_1755,
,,0.23,"[-2.25, 0]",/sounds/legit/left35.wav,,,,,9,33,348,21,,,,,,,,,,,,,,,left,0.218251943588,,,,,participant14,24,59.6985966011,M,trial,2017_May_28_1755,
,,0.1,"[4.5, 0]",/sounds/legit/right70.wav,,,,,9,34,349,10,,,,,,,,,,,,,,,right,0.619358062744,,,,,participant14,24,59.6985966011,M,trial,2017_May_28_1755,
,,,,,,,,,,,,,,,,,,,,,,,,,,,,,space,71.8886289597,,,participant14,24,59.6985966011,M,trial,2017_May_28_1755,
,,0.36,"[2.25, 0]",/sounds/legit/right35.wav,,,,,,,,,0,0,0,7,,,,,,,,,,,,,,,right,5.59645700455,participant14,24,59.6985966011,M,trial,2017_May_28_1755,
,,0.1,"[0, 0]",/sounds/legit/equal.wav,,,,,,,,,0,1,1,0,,,,,,,,,,,,,,,right,1.1704750061,participant14,24,59.6985966011,M,trial,2017_May_28_1755,
,,0.1,"[2.25, 0]",/sounds/legit/right35.wav,,,,,,,,,0,2,2,5,,,,,,,,,,,,,,,right,0.402236938477,participant14,24,59.6985966011,M,trial,2017_May_28_1755,
,,0.23,"[4.5, 0]",/sounds/legit/right70.wav,,,,,,,,,0,3,3,11,,,,,,,,,,,,,,,right,0.2685110569,participant14,24,59.6985966011,M,trial,2017_May_28_1755,
,,0.49,"[0, 0]",/sounds/legit/equal.wav,,,,,,,,,0,4,4,3,,,,,,,,,,,,,,,left,1.73830103874,participant14,24,59.6985966011,M,trial,2017_May_28_1755,
,,0.49,"[-2.25, 0]",/sounds/legit/left35.wav,,,,,,,,,0,5,5,23,,,,,,,,,,,,,,,left,4.51101899147,participant14,24,59.6985966011,M,trial,2017_May_28_1755,
,,0.1,"[-6.75, 0]",/sounds/legit/left100.wav,,,,,,,,,0,6,6,30,,,,,,,,,,,,,,,left,0.335582017899,participant14,24,59.6985966011,M,trial,2017_May_28_1755,
,,0.49,"[4.5, 0]",/sounds/legit/right70.wav,,,,,,,,,0,7,7,13,,,,,,,,,,,,,,,right,0.31884598732,participant14,24,59.6985966011,M,trial,2017_May_28_1755,
,,0.1,"[4.5, 0]",/sounds/legit/right70.wav,,,,,,,,,0,8,8,10,,,,,,,,,,,,,,,right,0.235188961029,participant14,24,59.6985966011,M,trial,2017_May_28_1755,
,,0.36,"[4.5, 0]",/sounds/legit/right70.wav,,,,,,,,,0,9,9,12,,,,,,,,,,,,,,,right,0.168322086334,participant14,24,59.6985966011,M,trial,2017_May_28_1755,
,,0.62,"[2.25, 0]",/sounds/legit/right35.wav,,,,,,,,,0,10,10,9,,,,,,,,,,,,,,,right,1.27057600021,participant14,24,59.6985966011,M,trial,2017_May_28_1755,
,,0.23,"[-4.5, 0]",/sounds/legit/left70.wav,,,,,,,,,0,11,11,26,,,,,,,,,,,,,,,left,0.118423223495,participant14,24,59.6985966011,M,trial,2017_May_28_1755,
,,0.1,"[2.25, 0]",/sounds/legit/right35.wav,,,,,,,,,0,12,12,5,,,,,,,,,,,,,,,right,0.168354988098,participant14,24,59.6985966011,M,trial,2017_May_28_1755,
,,0.36,"[4.5, 0]",/sounds/legit/right70.wav,,,,,,,,,0,13,13,12,,,,,,,,,,,,,,,right,2.60664701462,participant14,24,59.6985966011,M,trial,2017_May_28_1755,
,,0.1,"[0, 0]",/sounds/legit/equal.wav,,,,,,,,,0,14,14,0,,,,,,,,,,,,,,,right,4.57777714729,participant14,24,59.6985966011,M,trial,2017_May_28_1755,
,,0.62,"[-4.5, 0]",/sounds/legit/left70.wav,,,,,,,,,0,15,15,29,,,,,,,,,,,,,,,left,0.402199029922,participant14,24,59.6985966011,M,trial,2017_May_28_1755,
,,0.62,"[-4.5, 0]",/sounds/legit/left70.wav,,,,,,,,,0,16,16,29,,,,,,,,,,,,,,,left,0.351811885834,participant14,24,59.6985966011,M,trial,2017_May_28_1755,
,,0.1,"[6.75, 0]",/sounds/legit/right100.wav,,,,,,,,,0,17,17,15,,,,,,,,,,,,,,,right,0.28525185585,participant14,24,59.6985966011,M,trial,2017_May_28_1755,
,,0.62,"[-6.75, 0]",/sounds/legit/left100.wav,,,,,,,,,0,18,18,34,,,,,,,,,,,,,,,left,0.569140911102,participant14,24,59.6985966011,M,trial,2017_May_28_1755,
,,0.1,"[-6.75, 0]",/sounds/legit/left100.wav,,,,,,,,,0,19,19,30,,,,,,,,,,,,,,,left,23.8856670856,participant14,24,59.6985966011,M,trial,2017_May_28_1755,
,,0.49,"[2.25, 0]",/sounds/legit/right35.wav,,,,,,,,,0,20,20,8,,,,,,,,,,,,,,,left,1.63819098473,participant14,24,59.6985966011,M,trial,2017_May_28_1755,
,,0.62,"[-4.5, 0]",/sounds/legit/left70.wav,,,,,,,,,0,21,21,29,,,,,,,,,,,,,,,left,0.285062074661,participant14,24,59.6985966011,M,trial,2017_May_28_1755,
,,0.62,"[6.75, 0]",/sounds/legit/right100.wav,,,,,,,,,0,22,22,19,,,,,,,,,,,,,,,right,1.2539961338,participant14,24,59.6985966011,M,trial,2017_May_28_1755,
,,0.1,"[6.75, 0]",/sounds/legit/right100.wav,,,,,,,,,0,23,23,15,,,,,,,,,,,,,,,right,0.318695068359,participant14,24,59.6985966011,M,trial,2017_May_28_1755,
,,0.49,"[-2.25, 0]",/sounds/legit/left35.wav,,,,,,,,,0,24,24,23,,,,,,,,,,,,,,,left,1.77206397057,participant14,24,59.6985966011,M,trial,2017_May_28_1755,
,,0.36,"[-6.75, 0]",/sounds/legit/left100.wav,,,,,,,,,0,25,25,32,,,,,,,,,,,,,,,left,2.22259902954,participant14,24,59.6985966011,M,trial,2017_May_28_1755,
,,0.36,"[2.25, 0]",/sounds/legit/right35.wav,,,,,,,,,0,26,26,7,,,,,,,,,,,,,,,right,3.27497386932,participant14,24,59.6985966011,M,trial,2017_May_28_1755,
,,0.36,"[6.75, 0]",/sounds/legit/right100.wav,,,,,,,,,0,27,27,17,,,,,,,,,,,,,,,right,1.73746013641,participant14,24,59.6985966011,M,trial,2017_May_28_1755,
,,0.62,"[-6.75, 0]",/sounds/legit/left100.wav,,,,,,,,,0,28,28,34,,,,,,,,,,,,,,,left,0.936683177948,participant14,24,59.6985966011,M,trial,2017_May_28_1755,
,,0.62,"[-4.5, 0]",/sounds/legit/left70.wav,,,,,,,,,0,29,29,29,,,,,,,,,,,,,,,left,2.44030499458,participant14,24,59.6985966011,M,trial,2017_May_28_1755,
,,0.36,"[2.25, 0]",/sounds/legit/right35.wav,,,,,,,,,0,30,30,7,,,,,,,,,,,,,,,right,1.20409488678,participant14,24,59.6985966011,M,trial,2017_May_28_1755,
,,0.1,"[-4.5, 0]",/sounds/legit/left70.wav,,,,,,,,,0,31,31,25,,,,,,,,,,,,,,,left,1.42103481293,participant14,24,59.6985966011,M,trial,2017_May_28_1755,
,,0.23,"[-6.75, 0]",/sounds/legit/left100.wav,,,,,,,,,0,32,32,31,,,,,,,,,,,,,,,left,1.7381799221,participant14,24,59.6985966011,M,trial,2017_May_28_1755,
,,0.23,"[0, 0]",/sounds/legit/equal.wav,,,,,,,,,0,33,33,1,,,,,,,,,,,,,,,left,1.17028212547,participant14,24,59.6985966011,M,trial,2017_May_28_1755,
,,0.49,"[0, 0]",/sounds/legit/equal.wav,,,,,,,,,0,34,34,3,,,,,,,,,,,,,,,right,7.36725497246,participant14,24,59.6985966011,M,trial,2017_May_28_1755,
,,0.1,"[-2.25, 0]",/sounds/legit/left35.wav,,,,,,,,,1,0,35,20,,,,,,,,,,,,,,,left,1.77184295654,participant14,24,59.6985966011,M,trial,2017_May_28_1755,
,,0.1,"[-6.75, 0]",/sounds/legit/left100.wav,,,,,,,,,1,1,36,30,,,,,,,,,,,,,,,left,2.00493693352,participant14,24,59.6985966011,M,trial,2017_May_28_1755,
,,0.23,"[0, 0]",/sounds/legit/equal.wav,,,,,,,,,1,2,37,1,,,,,,,,,,,,,,,right,2.22314500809,participant14,24,59.6985966011,M,trial,2017_May_28_1755,
,,0.1,"[4.5, 0]",/sounds/legit/right70.wav,,,,,,,,,1,3,38,10,,,,,,,,,,,,,,,right,2.10598516464,participant14,24,59.6985966011,M,trial,2017_May_28_1755,
,,0.36,"[-6.75, 0]",/sounds/legit/left100.wav,,,,,,,,,1,4,39,32,,,,,,,,,,,,,,,left,0.218786001205,participant14,24,59.6985966011,M,trial,2017_May_28_1755,
,,0.49,"[6.75, 0]",/sounds/legit/right100.wav,,,,,,,,,1,5,40,18,,,,,,,,,,,,,,,right,0.168510913849,participant14,24,59.6985966011,M,trial,2017_May_28_1755,
,,0.36,"[6.75, 0]",/sounds/legit/right100.wav,,,,,,,,,1,6,41,17,,,,,,,,,,,,,,,right,0.117980957031,participant14,24,59.6985966011,M,trial,2017_May_28_1755,
,,0.62,"[0, 0]",/sounds/legit/equal.wav,,,,,,,,,1,7,42,4,,,,,,,,,,,,,,,right,3.02467918396,participant14,24,59.6985966011,M,trial,2017_May_28_1755,
,,0.49,"[4.5, 0]",/sounds/legit/right70.wav,,,,,,,,,1,8,43,13,,,,,,,,,,,,,,,right,0.5524289608,participant14,24,59.6985966011,M,trial,2017_May_28_1755,
,,0.1,"[2.25, 0]",/sounds/legit/right35.wav,,,,,,,,,1,9,44,5,,,,,,,,,,,,,,,right,0.452553033829,participant14,24,59.6985966011,M,trial,2017_May_28_1755,
,,0.49,"[0, 0]",/sounds/legit/equal.wav,,,,,,,,,1,10,45,3,,,,,,,,,,,,,,,right,0.753075838089,participant14,24,59.6985966011,M,trial,2017_May_28_1755,
,,0.49,"[4.5, 0]",/sounds/legit/right70.wav,,,,,,,,,1,11,46,13,,,,,,,,,,,,,,,right,0.235165119171,participant14,24,59.6985966011,M,trial,2017_May_28_1755,
,,0.49,"[2.25, 0]",/sounds/legit/right35.wav,,,,,,,,,1,12,47,8,,,,,,,,,,,,,,,right,3.35874891281,participant14,24,59.6985966011,M,trial,2017_May_28_1755,
,,0.23,"[2.25, 0]",/sounds/legit/right35.wav,,,,,,,,,1,13,48,6,,,,,,,,,,,,,,,right,1.22070908546,participant14,24,59.6985966011,M,trial,2017_May_28_1755,
,,0.36,"[2.25, 0]",/sounds/legit/right35.wav,,,,,,,,,1,14,49,7,,,,,,,,,,,,,,,left,0.352113008499,participant14,24,59.6985966011,M,trial,2017_May_28_1755,
,,0.49,"[-2.25, 0]",/sounds/legit/left35.wav,,,,,,,,,1,15,50,23,,,,,,,,,,,,,,,left,9.10435199738,participant14,24,59.6985966011,M,trial,2017_May_28_1755,
,,0.23,"[-2.25, 0]",/sounds/legit/left35.wav,,,,,,,,,1,16,51,21,,,,,,,,,,,,,,,left,0.352347135544,participant14,24,59.6985966011,M,trial,2017_May_28_1755,
,,0.49,"[0, 0]",/sounds/legit/equal.wav,,,,,,,,,1,17,52,3,,,,,,,,,,,,,,,left,0.168263912201,participant14,24,59.6985966011,M,trial,2017_May_28_1755,
,,0.36,"[0, 0]",/sounds/legit/equal.wav,,,,,,,,,1,18,53,2,,,,,,,,,,,,,,,left,4.77833294868,participant14,24,59.6985966011,M,trial,2017_May_28_1755,
,,0.23,"[-2.25, 0]",/sounds/legit/left35.wav,,,,,,,,,1,19,54,21,,,,,,,,,,,,,,,left,4.47757697105,participant14,24,59.6985966011,M,trial,2017_May_28_1755,
,,0.62,"[6.75, 0]",/sounds/legit/right100.wav,,,,,,,,,1,20,55,19,,,,,,,,,,,,,,,right,0.786211967468,participant14,24,59.6985966011,M,trial,2017_May_28_1755,
,,0.23,"[4.5, 0]",/sounds/legit/right70.wav,,,,,,,,,1,21,56,11,,,,,,,,,,,,,,,right,0.134912967682,participant14,24,59.6985966011,M,trial,2017_May_28_1755,
,,0.36,"[-2.25, 0]",/sounds/legit/left35.wav,,,,,,,,,1,22,57,22,,,,,,,,,,,,,,,left,0.118669986725,participant14,24,59.6985966011,M,trial,2017_May_28_1755,
,,0.1,"[4.5, 0]",/sounds/legit/right70.wav,,,,,,,,,1,23,58,10,,,,,,,,,,,,,,,right,0.134948015213,participant14,24,59.6985966011,M,trial,2017_May_28_1755,
,,0.49,"[-6.75, 0]",/sounds/legit/left100.wav,,,,,,,,,1,24,59,33,,,,,,,,,,,,,,,left,0.184944152832,participant14,24,59.6985966011,M,trial,2017_May_28_1755,
,,0.62,"[-2.25, 0]",/sounds/legit/left35.wav,,,,,,,,,1,25,60,24,,,,,,,,,,,,,,,left,0.23511505127,participant14,24,59.6985966011,M,trial,2017_May_28_1755,
,,0.62,"[-2.25, 0]",/sounds/legit/left35.wav,,,,,,,,,1,26,61,24,,,,,,,,,,,,,,,left,0.552432060242,participant14,24,59.6985966011,M,trial,2017_May_28_1755,
,,0.36,"[6.75, 0]",/sounds/legit/right100.wav,,,,,,,,,1,27,62,17,,,,,,,,,,,,,,,right,0.218276977539,participant14,24,59.6985966011,M,trial,2017_May_28_1755,
,,0.23,"[4.5, 0]",/sounds/legit/right70.wav,,,,,,,,,1,28,63,11,,,,,,,,,,,,,,,right,0.0851130485535,participant14,24,59.6985966011,M,trial,2017_May_28_1755,
,,0.23,"[-6.75, 0]",/sounds/legit/left100.wav,,,,,,,,,1,29,64,31,,,,,,,,,,,,,,,left,0.0344939231873,participant14,24,59.6985966011,M,trial,2017_May_28_1755,
,,0.62,"[-6.75, 0]",/sounds/legit/left100.wav,,,,,,,,,1,30,65,34,,,,,,,,,,,,,,,left,0.101646900177,participant14,24,59.6985966011,M,trial,2017_May_28_1755,
,,0.23,"[6.75, 0]",/sounds/legit/right100.wav,,,,,,,,,1,31,66,16,,,,,,,,,,,,,,,right,0.0847549438477,participant14,24,59.6985966011,M,trial,2017_May_28_1755,
,,0.23,"[-2.25, 0]",/sounds/legit/left35.wav,,,,,,,,,1,32,67,21,,,,,,,,,,,,,,,left,0.18409204483,participant14,24,59.6985966011,M,trial,2017_May_28_1755,
,,0.49,"[4.5, 0]",/sounds/legit/right70.wav,,,,,,,,,1,33,68,13,,,,,,,,,,,,,,,right,0.135004997253,participant14,24,59.6985966011,M,trial,2017_May_28_1755,
,,0.1,"[-2.25, 0]",/sounds/legit/left35.wav,,,,,,,,,1,34,69,20,,,,,,,,,,,,,,,left,0.051549911499,participant14,24,59.6985966011,M,trial,2017_May_28_1755,
,,0.1,"[4.5, 0]",/sounds/legit/right70.wav,,,,,,,,,2,0,70,10,,,,,,,,,,,,,,,right,0.168283939362,participant14,24,59.6985966011,M,trial,2017_May_28_1755,
,,0.49,"[-4.5, 0]",/sounds/legit/left70.wav,,,,,,,,,2,1,71,28,,,,,,,,,,,,,,,left,0.15176820755,participant14,24,59.6985966011,M,trial,2017_May_28_1755,
,,0.49,"[6.75, 0]",/sounds/legit/right100.wav,,,,,,,,,2,2,72,18,,,,,,,,,,,,,,,right,0.135012149811,participant14,24,59.6985966011,M,trial,2017_May_28_1755,
,,0.49,"[-4.5, 0]",/sounds/legit/left70.wav,,,,,,,,,2,3,73,28,,,,,,,,,,,,,,,left,0.16867017746,participant14,24,59.6985966011,M,trial,2017_May_28_1755,
,,0.23,"[4.5, 0]",/sounds/legit/right70.wav,,,,,,,,,2,4,74,11,,,,,,,,,,,,,,,right,0.0514669418335,participant14,24,59.6985966011,M,trial,2017_May_28_1755,
,,0.49,"[0, 0]",/sounds/legit/equal.wav,,,,,,,,,2,5,75,3,,,,,,,,,,,,,,,right,0.502207040787,participant14,24,59.6985966011,M,trial,2017_May_28_1755,
,,0.23,"[-6.75, 0]",/sounds/legit/left100.wav,,,,,,,,,2,6,76,31,,,,,,,,,,,,,,,left,0.0179131031036,participant14,24,59.6985966011,M,trial,2017_May_28_1755,
,,0.36,"[4.5, 0]",/sounds/legit/right70.wav,,,,,,,,,2,7,77,12,,,,,,,,,,,,,,,right,0.0680828094482,participant14,24,59.6985966011,M,trial,2017_May_28_1755,
,,0.1,"[4.5, 0]",/sounds/legit/right70.wav,,,,,,,,,2,8,78,10,,,,,,,,,,,,,,,right,0.0516419410706,participant14,24,59.6985966011,M,trial,2017_May_28_1755,
,,0.1,"[2.25, 0]",/sounds/legit/right35.wav,,,,,,,,,2,9,79,5,,,,,,,,,,,,,,,right,0.101801156998,participant14,24,59.6985966011,M,trial,2017_May_28_1755,
,,0.62,"[6.75, 0]",/sounds/legit/right100.wav,,,,,,,,,2,10,80,19,,,,,,,,,,,,,,,right,0.0679540634155,participant14,24,59.6985966011,M,trial,2017_May_28_1755,
,,0.23,"[2.25, 0]",/sounds/legit/right35.wav,,,,,,,,,2,11,81,6,,,,,,,,,,,,,,,right,0.0515868663788,participant14,24,59.6985966011,M,trial,2017_May_28_1755,
,,0.49,"[2.25, 0]",/sounds/legit/right35.wav,,,,,,,,,2,12,82,8,,,,,,,,,,,,,,,right,0.0181651115417,participant14,24,59.6985966011,M,trial,2017_May_28_1755,
,,0.49,"[2.25, 0]",/sounds/legit/right35.wav,,,,,,,,,2,13,83,8,,,,,,,,,,,,,,,right,0.669390916824,participant14,24,59.6985966011,M,trial,2017_May_28_1755,
,,0.23,"[0, 0]",/sounds/legit/equal.wav,,,,,,,,,2,14,84,1,,,,,,,,,,,,,,,right,0.986831903458,participant14,24,59.6985966011,M,trial,2017_May_28_1755,
,,0.49,"[6.75, 0]",/sounds/legit/right100.wav,,,,,,,,,2,15,85,18,,,,,,,,,,,,,,,right,0.0179510116577,participant14,24,59.6985966011,M,trial,2017_May_28_1755,
,,0.62,"[-2.25, 0]",/sounds/legit/left35.wav,,,,,,,,,2,16,86,24,,,,,,,,,,,,,,,left,0.101701021194,participant14,24,59.6985966011,M,trial,2017_May_28_1755,
,,0.36,"[4.5, 0]",/sounds/legit/right70.wav,,,,,,,,,2,17,87,12,,,,,,,,,,,,,,,right,0.051342010498,participant14,24,59.6985966011,M,trial,2017_May_28_1755,
,,0.62,"[2.25, 0]",/sounds/legit/right35.wav,,,,,,,,,2,18,88,9,,,,,,,,,,,,,,,right,0.118103981018,participant14,24,59.6985966011,M,trial,2017_May_28_1755,
,,0.1,"[-4.5, 0]",/sounds/legit/left70.wav,,,,,,,,,2,19,89,25,,,,,,,,,,,,,,,left,0.151468038559,participant14,24,59.6985966011,M,trial,2017_May_28_1755,
,,0.36,"[0, 0]",/sounds/legit/equal.wav,,,,,,,,,2,20,90,2,,,,,,,,,,,,,,,left,4.19392704964,participant14,24,59.6985966011,M,trial,2017_May_28_1755,
,,0.23,"[0, 0]",/sounds/legit/equal.wav,,,,,,,,,2,21,91,1,,,,,,,,,,,,,,,right,0.385579824448,participant14,24,59.6985966011,M,trial,2017_May_28_1755,
,,0.62,"[4.5, 0]",/sounds/legit/right70.wav,,,,,,,,,2,22,92,14,,,,,,,,,,,,,,,right,0.00144290924072,participant14,24,59.6985966011,M,trial,2017_May_28_1755,
,,0.23,"[6.75, 0]",/sounds/legit/right100.wav,,,,,,,,,2,23,93,16,,,,,,,,,,,,,,,right,2.50432491302,participant14,24,59.6985966011,M,trial,2017_May_28_1755,
,,0.49,"[-2.25, 0]",/sounds/legit/left35.wav,,,,,,,,,2,24,94,23,,,,,,,,,,,,,,,left,0.150469064713,participant14,24,59.6985966011,M,trial,2017_May_28_1755,
,,0.62,"[6.75, 0]",/sounds/legit/right100.wav,,,,,,,,,2,25,95,19,,,,,,,,,,,,,,,right,0.0347080230713,participant14,24,59.6985966011,M,trial,2017_May_28_1755,
,,0.49,"[-2.25, 0]",/sounds/legit/left35.wav,,,,,,,,,2,26,96,23,,,,,,,,,,,,,,,left,0.135094165802,participant14,24,59.6985966011,M,trial,2017_May_28_1755,
,,0.1,"[0, 0]",/sounds/legit/equal.wav,,,,,,,,,2,27,97,0,,,,,,,,,,,,,,,right,5.26271486282,participant14,24,59.6985966011,M,trial,2017_May_28_1755,
,,0.62,"[-6.75, 0]",/sounds/legit/left100.wav,,,,,,,,,2,28,98,34,,,,,,,,,,,,,,,left,0.502623081207,participant14,24,59.6985966011,M,trial,2017_May_28_1755,
,,0.49,"[2.25, 0]",/sounds/legit/right35.wav,,,,,,,,,2,29,99,8,,,,,,,,,,,,,,,right,0.168531179428,participant14,24,59.6985966011,M,trial,2017_May_28_1755,
,,0.23,"[-4.5, 0]",/sounds/legit/left70.wav,,,,,,,,,2,30,100,26,,,,,,,,,,,,,,,left,0.268487930298,participant14,24,59.6985966011,M,trial,2017_May_28_1755,
,,0.62,"[6.75, 0]",/sounds/legit/right100.wav,,,,,,,,,2,31,101,19,,,,,,,,,,,,,,,right,0.101424217224,participant14,24,59.6985966011,M,trial,2017_May_28_1755,
,,0.36,"[-2.25, 0]",/sounds/legit/left35.wav,,,,,,,,,2,32,102,22,,,,,,,,,,,,,,,left,0.385572910309,participant14,24,59.6985966011,M,trial,2017_May_28_1755,
,,0.23,"[-2.25, 0]",/sounds/legit/left35.wav,,,,,,,,,2,33,103,21,,,,,,,,,,,,,,,left,0.134884119034,participant14,24,59.6985966011,M,trial,2017_May_28_1755,
,,0.49,"[2.25, 0]",/sounds/legit/right35.wav,,,,,,,,,2,34,104,8,,,,,,,,,,,,,,,right,0.435537099838,participant14,24,59.6985966011,M,trial,2017_May_28_1755,
,,0.36,"[-4.5, 0]",/sounds/legit/left70.wav,,,,,,,,,3,0,105,27,,,,,,,,,,,,,,,left,0.10179901123,participant14,24,59.6985966011,M,trial,2017_May_28_1755,
,,0.62,"[6.75, 0]",/sounds/legit/right100.wav,,,,,,,,,3,1,106,19,,,,,,,,,,,,,,,right,0.201778173447,participant14,24,59.6985966011,M,trial,2017_May_28_1755,
,,0.62,"[-2.25, 0]",/sounds/legit/left35.wav,,,,,,,,,3,2,107,24,,,,,,,,,,,,,,,left,0.252035856247,participant14,24,59.6985966011,M,trial,2017_May_28_1755,
,,0.36,"[-4.5, 0]",/sounds/legit/left70.wav,,,,,,,,,3,3,108,27,,,,,,,,,,,,,,,left,0.218536138535,participant14,24,59.6985966011,M,trial,2017_May_28_1755,
,,0.1,"[-6.75, 0]",/sounds/legit/left100.wav,,,,,,,,,3,4,109,30,,,,,,,,,,,,,,,left,0.167376995087,participant14,24,59.6985966011,M,trial,2017_May_28_1755,
,,0.23,"[2.25, 0]",/sounds/legit/right35.wav,,,,,,,,,3,5,110,6,,,,,,,,,,,,,,,right,0.268450975418,participant14,24,59.6985966011,M,trial,2017_May_28_1755,
,,0.62,"[-6.75, 0]",/sounds/legit/left100.wav,,,,,,,,,3,6,111,34,,,,,,,,,,,,,,,left,0.0184168815613,participant14,24,59.6985966011,M,trial,2017_May_28_1755,
,,0.62,"[2.25, 0]",/sounds/legit/right35.wav,,,,,,,,,3,7,112,9,,,,,,,,,,,,,,,right,0.101483106613,participant14,24,59.6985966011,M,trial,2017_May_28_1755,
,,0.36,"[-2.25, 0]",/sounds/legit/left35.wav,,,,,,,,,3,8,113,22,,,,,,,,,,,,,,,left,0.0347599983215,participant14,24,59.6985966011,M,trial,2017_May_28_1755,
,,0.36,"[-6.75, 0]",/sounds/legit/left100.wav,,,,,,,,,3,9,114,32,,,,,,,,,,,,,,,left,0.101536989212,participant14,24,59.6985966011,M,trial,2017_May_28_1755,
,,0.49,"[4.5, 0]",/sounds/legit/right70.wav,,,,,,,,,3,10,115,13,,,,,,,,,,,,,,,right,0.184926986694,participant14,24,59.6985966011,M,trial,2017_May_28_1755,
,,0.49,"[-6.75, 0]",/sounds/legit/left100.wav,,,,,,,,,3,11,116,33,,,,,,,,,,,,,,,left,0.101630926132,participant14,24,59.6985966011,M,trial,2017_May_28_1755,
,,0.62,"[-6.75, 0]",/sounds/legit/left100.wav,,,,,,,,,3,12,117,34,,,,,,,,,,,,,,,left,0.0513188838959,participant14,24,59.6985966011,M,trial,2017_May_28_1755,
,,0.23,"[4.5, 0]",/sounds/legit/right70.wav,,,,,,,,,3,13,118,11,,,,,,,,,,,,,,,right,0.10183095932,participant14,24,59.6985966011,M,trial,2017_May_28_1755,
,,0.36,"[6.75, 0]",/sounds/legit/right100.wav,,,,,,,,,3,14,119,17,,,,,,,,,,,,,,,right,0.151642084122,participant14,24,59.6985966011,M,trial,2017_May_28_1755,
,,0.36,"[-4.5, 0]",/sounds/legit/left70.wav,,,,,,,,,3,15,120,27,,,,,,,,,,,,,,,left,0.0180621147156,participant14,24,59.6985966011,M,trial,2017_May_28_1755,
,,0.49,"[0, 0]",/sounds/legit/equal.wav,,,,,,,,,3,16,121,3,,,,,,,,,,,,,,,left,0.469146966934,participant14,24,59.6985966011,M,trial,2017_May_28_1755,
,,0.49,"[-2.25, 0]",/sounds/legit/left35.wav,,,,,,,,,3,17,122,23,,,,,,,,,,,,,,,left,0.118314981461,participant14,24,59.6985966011,M,trial,2017_May_28_1755,
,,0.62,"[0, 0]",/sounds/legit/equal.wav,,,,,,,,,3,18,123,4,,,,,,,,,,,,,,,left,0.185448884964,participant14,24,59.6985966011,M,trial,2017_May_28_1755,
,,0.62,"[0, 0]",/sounds/legit/equal.wav,,,,,,,,,3,19,124,4,,,,,,,,,,,,,,,left,0.0848228931427,participant14,24,59.6985966011,M,trial,2017_May_28_1755,
,,0.1,"[6.75, 0]",/sounds/legit/right100.wav,,,,,,,,,3,20,125,15,,,,,,,,,,,,,,,right,0.0516500473022,participant14,24,59.6985966011,M,trial,2017_May_28_1755,
,,0.1,"[4.5, 0]",/sounds/legit/right70.wav,,,,,,,,,3,21,126,10,,,,,,,,,,,,,,,right,0.185057163239,participant14,24,59.6985966011,M,trial,2017_May_28_1755,
,,0.62,"[6.75, 0]",/sounds/legit/right100.wav,,,,,,,,,3,22,127,19,,,,,,,,,,,,,,,right,0.084911108017,participant14,24,59.6985966011,M,trial,2017_May_28_1755,
,,0.62,"[6.75, 0]",/sounds/legit/right100.wav,,,,,,,,,3,23,128,19,,,,,,,,,,,,,,,right,0.051577091217,participant14,24,59.6985966011,M,trial,2017_May_28_1755,
,,0.23,"[-6.75, 0]",/sounds/legit/left100.wav,,,,,,,,,3,24,129,31,,,,,,,,,,,,,,,left,0.11824798584,participant14,24,59.6985966011,M,trial,2017_May_28_1755,
,,0.23,"[4.5, 0]",/sounds/legit/right70.wav,,,,,,,,,3,25,130,11,,,,,,,,,,,,,,,right,0.151499032974,participant14,24,59.6985966011,M,trial,2017_May_28_1755,
,,0.1,"[0, 0]",/sounds/legit/equal.wav,,,,,,,,,3,26,131,0,,,,,,,,,,,,,,,right,0.185102939606,participant14,24,59.6985966011,M,trial,2017_May_28_1755,
,,0.49,"[-4.5, 0]",/sounds/legit/left70.wav,,,,,,,,,3,27,132,28,,,,,,,,,,,,,,,left,0.0180900096893,participant14,24,59.6985966011,M,trial,2017_May_28_1755,
,,0.36,"[-2.25, 0]",/sounds/legit/left35.wav,,,,,,,,,3,28,133,22,,,,,,,,,,,,,,,left,0.803218126297,participant14,24,59.6985966011,M,trial,2017_May_28_1755,
,,0.62,"[-2.25, 0]",/sounds/legit/left35.wav,,,,,,,,,3,29,134,24,,,,,,,,,,,,,,,left,0.118143081665,participant14,24,59.6985966011,M,trial,2017_May_28_1755,
,,0.36,"[-6.75, 0]",/sounds/legit/left100.wav,,,,,,,,,3,30,135,32,,,,,,,,,,,,,,,left,0.134906053543,participant14,24,59.6985966011,M,trial,2017_May_28_1755,
,,0.23,"[-4.5, 0]",/sounds/legit/left70.wav,,,,,,,,,3,31,136,26,,,,,,,,,,,,,,,left,0.0180790424347,participant14,24,59.6985966011,M,trial,2017_May_28_1755,
,,0.62,"[0, 0]",/sounds/legit/equal.wav,,,,,,,,,3,32,137,4,,,,,,,,,,,,,,,left,0.0514030456543,participant14,24,59.6985966011,M,trial,2017_May_28_1755,
,,0.1,"[-4.5, 0]",/sounds/legit/left70.wav,,,,,,,,,3,33,138,25,,,,,,,,,,,,,,,left,0.0850009918213,participant14,24,59.6985966011,M,trial,2017_May_28_1755,
,,0.62,"[2.25, 0]",/sounds/legit/right35.wav,,,,,,,,,3,34,139,9,,,,,,,,,,,,,,,right,0.234897136688,participant14,24,59.6985966011,M,trial,2017_May_28_1755,
,,0.36,"[0, 0]",/sounds/legit/equal.wav,,,,,,,,,4,0,140,2,,,,,,,,,,,,,,,left,2.8572909832,participant14,24,59.6985966011,M,trial,2017_May_28_1755,
,,0.49,"[4.5, 0]",/sounds/legit/right70.wav,,,,,,,,,4,1,141,13,,,,,,,,,,,,,,,right,0.36868596077,participant14,24,59.6985966011,M,trial,2017_May_28_1755,
,,0.49,"[-4.5, 0]",/sounds/legit/left70.wav,,,,,,,,,4,2,142,28,,,,,,,,,,,,,,,left,0.752971887589,participant14,24,59.6985966011,M,trial,2017_May_28_1755,
,,0.23,"[2.25, 0]",/sounds/legit/right35.wav,,,,,,,,,4,3,143,6,,,,,,,,,,,,,,,right,0.385686159134,participant14,24,59.6985966011,M,trial,2017_May_28_1755,
,,0.49,"[4.5, 0]",/sounds/legit/right70.wav,,,,,,,,,4,4,144,13,,,,,,,,,,,,,,,right,0.0180199146271,participant14,24,59.6985966011,M,trial,2017_May_28_1755,
,,0.36,"[6.75, 0]",/sounds/legit/right100.wav,,,,,,,,,4,5,145,17,,,,,,,,,,,,,,,right,0.0179891586304,participant14,24,59.6985966011,M,trial,2017_May_28_1755,
,,0.23,"[-4.5, 0]",/sounds/legit/left70.wav,,,,,,,,,4,6,146,26,,,,,,,,,,,,,,,left,0.720972061157,participant14,24,59.6985966011,M,trial,2017_May_28_1755,
,,0.23,"[6.75, 0]",/sounds/legit/right100.wav,,,,,,,,,4,7,147,16,,,,,,,,,,,,,,,right,0.0681319236755,participant14,24,59.6985966011,M,trial,2017_May_28_1755,
,,0.23,"[-6.75, 0]",/sounds/legit/left100.wav,,,,,,,,,4,8,148,31,,,,,,,,,,,,,,,left,0.0848648548126,participant14,24,59.6985966011,M,trial,2017_May_28_1755,
,,0.23,"[0, 0]",/sounds/legit/equal.wav,,,,,,,,,4,9,149,1,,,,,,,,,,,,,,,left,0.535674095154,participant14,24,59.6985966011,M,trial,2017_May_28_1755,
,,0.23,"[-2.25, 0]",/sounds/legit/left35.wav,,,,,,,,,4,10,150,21,,,,,,,,,,,,,,,left,1.27088999748,participant14,24,59.6985966011,M,trial,2017_May_28_1755,
,,0.1,"[-4.5, 0]",/sounds/legit/left70.wav,,,,,,,,,4,11,151,25,,,,,,,,,,,,,,,left,0.268934011459,participant14,24,59.6985966011,M,trial,2017_May_28_1755,
,,0.62,"[0, 0]",/sounds/legit/equal.wav,,,,,,,,,4,12,152,4,,,,,,,,,,,,,,,left,0.735431909561,participant14,24,59.6985966011,M,trial,2017_May_28_1755,
,,0.23,"[-2.25, 0]",/sounds/legit/left35.wav,,,,,,,,,4,13,153,21,,,,,,,,,,,,,,,left,0.0847289562225,participant14,24,59.6985966011,M,trial,2017_May_28_1755,
,,0.23,"[-4.5, 0]",/sounds/legit/left70.wav,,,,,,,,,4,14,154,26,,,,,,,,,,,,,,,left,0.0180180072784,participant14,24,59.6985966011,M,trial,2017_May_28_1755,
,,0.36,"[-2.25, 0]",/sounds/legit/left35.wav,,,,,,,,,4,15,155,22,,,,,,,,,,,,,,,left,0.168543815613,participant14,24,59.6985966011,M,trial,2017_May_28_1755,
,,0.36,"[0, 0]",/sounds/legit/equal.wav,,,,,,,,,4,16,156,2,,,,,,,,,,,,,,,right,0.235153198242,participant14,24,59.6985966011,M,trial,2017_May_28_1755,
,,0.23,"[0, 0]",/sounds/legit/equal.wav,,,,,,,,,4,17,157,1,,,,,,,,,,,,,,,left,1.72210597992,participant14,24,59.6985966011,M,trial,2017_May_28_1755,
,,0.1,"[-2.25, 0]",/sounds/legit/left35.wav,,,,,,,,,4,18,158,20,,,,,,,,,,,,,,,left,0.602668046951,participant14,24,59.6985966011,M,trial,2017_May_28_1755,
,,0.36,"[2.25, 0]",/sounds/legit/right35.wav,,,,,,,,,4,19,159,7,,,,,,,,,,,,,,,right,0.402068853378,participant14,24,59.6985966011,M,trial,2017_May_28_1755,
,,0.1,"[2.25, 0]",/sounds/legit/right35.wav,,,,,,,,,4,20,160,5,,,,,,,,,,,,,,,left,0.235095977783,participant14,24,59.6985966011,M,trial,2017_May_28_1755,
,,0.36,"[-4.5, 0]",/sounds/legit/left70.wav,,,,,,,,,4,21,161,27,,,,,,,,,,,,,,,left,0.118139982224,participant14,24,59.6985966011,M,trial,2017_May_28_1755,
,,0.36,"[0, 0]",/sounds/legit/equal.wav,,,,,,,,,4,22,162,2,,,,,,,,,,,,,,,left,0.268733978271,participant14,24,59.6985966011,M,trial,2017_May_28_1755,
,,0.49,"[4.5, 0]",/sounds/legit/right70.wav,,,,,,,,,4,23,163,13,,,,,,,,,,,,,,,right,0.101489067078,participant14,24,59.6985966011,M,trial,2017_May_28_1755,
,,0.23,"[6.75, 0]",/sounds/legit/right100.wav,,,,,,,,,4,24,164,16,,,,,,,,,,,,,,,right,0.0182430744171,participant14,24,59.6985966011,M,trial,2017_May_28_1755,
,,0.1,"[0, 0]",/sounds/legit/equal.wav,,,,,,,,,4,25,165,0,,,,,,,,,,,,,,,right,0.0851938724518,participant14,24,59.6985966011,M,trial,2017_May_28_1755,
,,0.23,"[4.5, 0]",/sounds/legit/right70.wav,,,,,,,,,4,26,166,11,,,,,,,,,,,,,,,right,0.0847518444061,participant14,24,59.6985966011,M,trial,2017_May_28_1755,
,,0.36,"[-6.75, 0]",/sounds/legit/left100.wav,,,,,,,,,4,27,167,32,,,,,,,,,,,,,,,left,0.08464884758,participant14,24,59.6985966011,M,trial,2017_May_28_1755,
,,0.1,"[4.5, 0]",/sounds/legit/right70.wav,,,,,,,,,4,28,168,10,,,,,,,,,,,,,,,right,0.184847831726,participant14,24,59.6985966011,M,trial,2017_May_28_1755,
,,0.49,"[-4.5, 0]",/sounds/legit/left70.wav,,,,,,,,,4,29,169,28,,,,,,,,,,,,,,,left,0.118291854858,participant14,24,59.6985966011,M,trial,2017_May_28_1755,
,,0.23,"[6.75, 0]",/sounds/legit/right100.wav,,,,,,,,,4,30,170,16,,,,,,,,,,,,,,,right,0.134711027145,participant14,24,59.6985966011,M,trial,2017_May_28_1755,
,,0.23,"[-2.25, 0]",/sounds/legit/left35.wav,,,,,,,,,4,31,171,21,,,,,,,,,,,,,,,left,0.485653877258,participant14,24,59.6985966011,M,trial,2017_May_28_1755,
,,0.1,"[-4.5, 0]",/sounds/legit/left70.wav,,,,,,,,,4,32,172,25,,,,,,,,,,,,,,,left,0.0681610107422,participant14,24,59.6985966011,M,trial,2017_May_28_1755,
,,0.23,"[4.5, 0]",/sounds/legit/right70.wav,,,,,,,,,4,33,173,11,,,,,,,,,,,,,,,right,0.0681819915771,participant14,24,59.6985966011,M,trial,2017_May_28_1755,
,,0.36,"[0, 0]",/sounds/legit/equal.wav,,,,,,,,,4,34,174,2,,,,,,,,,,,,,,,right,0.485821962357,participant14,24,59.6985966011,M,trial,2017_May_28_1755,
,,0.49,"[6.75, 0]",/sounds/legit/right100.wav,,,,,,,,,5,0,175,18,,,,,,,,,,,,,,,right,0.0346689224243,participant14,24,59.6985966011,M,trial,2017_May_28_1755,
,,0.49,"[-4.5, 0]",/sounds/legit/left70.wav,,,,,,,,,5,1,176,28,,,,,,,,,,,,,,,left,0.0679771900177,participant14,24,59.6985966011,M,trial,2017_May_28_1755,
,,0.36,"[4.5, 0]",/sounds/legit/right70.wav,,,,,,,,,5,2,177,12,,,,,,,,,,,,,,,right,0.0180790424347,participant14,24,59.6985966011,M,trial,2017_May_28_1755,
,,0.1,"[2.25, 0]",/sounds/legit/right35.wav,,,,,,,,,5,3,178,5,,,,,,,,,,,,,,,right,0.101959943771,participant14,24,59.6985966011,M,trial,2017_May_28_1755,
,,0.36,"[-6.75, 0]",/sounds/legit/left100.wav,,,,,,,,,5,4,179,32,,,,,,,,,,,,,,,left,0.0848529338837,participant14,24,59.6985966011,M,trial,2017_May_28_1755,
,,0.1,"[2.25, 0]",/sounds/legit/right35.wav,,,,,,,,,5,5,180,5,,,,,,,,,,,,,,,right,0.118121862411,participant14,24,59.6985966011,M,trial,2017_May_28_1755,
,,0.62,"[6.75, 0]",/sounds/legit/right100.wav,,,,,,,,,5,6,181,19,,,,,,,,,,,,,,,right,0.218543052673,participant14,24,59.6985966011,M,trial,2017_May_28_1755,
,,0.23,"[0, 0]",/sounds/legit/equal.wav,,,,,,,,,5,7,182,1,,,,,,,,,,,,,,,left,4.07675790787,participant14,24,59.6985966011,M,trial,2017_May_28_1755,
,,0.1,"[0, 0]",/sounds/legit/equal.wav,,,,,,,,,5,8,183,0,,,,,,,,,,,,,,,right,0.218344926834,participant14,24,59.6985966011,M,trial,2017_May_28_1755,
,,0.62,"[4.5, 0]",/sounds/legit/right70.wav,,,,,,,,,5,9,184,14,,,,,,,,,,,,,,,right,0.084746837616,participant14,24,59.6985966011,M,trial,2017_May_28_1755,
,,0.36,"[0, 0]",/sounds/legit/equal.wav,,,,,,,,,5,10,185,2,,,,,,,,,,,,,,,left,0.45231795311,participant14,24,59.6985966011,M,trial,2017_May_28_1755,
,,0.36,"[-2.25, 0]",/sounds/legit/left35.wav,,,,,,,,,5,11,186,22,,,,,,,,,,,,,,,left,0.0529749393463,participant14,24,59.6985966011,M,trial,2017_May_28_1755,
,,0.36,"[-6.75, 0]",/sounds/legit/left100.wav,,,,,,,,,5,12,187,32,,,,,,,,,,,,,,,left,0.151831865311,participant14,24,59.6985966011,M,trial,2017_May_28_1755,
,,0.49,"[-6.75, 0]",/sounds/legit/left100.wav,,,,,,,,,5,13,188,33,,,,,,,,,,,,,,,left,0.636010885239,participant14,24,59.6985966011,M,trial,2017_May_28_1755,
,,0.23,"[6.75, 0]",/sounds/legit/right100.wav,,,,,,,,,5,14,189,16,,,,,,,,,,,,,,,right,0.251989126205,participant14,24,59.6985966011,M,trial,2017_May_28_1755,
,,0.36,"[4.5, 0]",/sounds/legit/right70.wav,,,,,,,,,5,15,190,12,,,,,,,,,,,,,,,right,0.00139307975769,participant14,24,59.6985966011,M,trial,2017_May_28_1755,
,,0.23,"[2.25, 0]",/sounds/legit/right35.wav,,,,,,,,,5,16,191,6,,,,,,,,,,,,,,,right,0.702919960022,participant14,24,59.6985966011,M,trial,2017_May_28_1755,
,,0.49,"[-4.5, 0]",/sounds/legit/left70.wav,,,,,,,,,5,17,192,28,,,,,,,,,,,,,,,left,0.201795101166,participant14,24,59.6985966011,M,trial,2017_May_28_1755,
,,0.49,"[-6.75, 0]",/sounds/legit/left100.wav,,,,,,,,,5,18,193,33,,,,,,,,,,,,,,,left,0.0178771018982,participant14,24,59.6985966011,M,trial,2017_May_28_1755,
,,0.62,"[-4.5, 0]",/sounds/legit/left70.wav,,,,,,,,,5,19,194,29,,,,,,,,,,,,,,,left,0.134814977646,participant14,24,59.6985966011,M,trial,2017_May_28_1755,
,,0.62,"[4.5, 0]",/sounds/legit/right70.wav,,,,,,,,,5,20,195,14,,,,,,,,,,,,,,,right,0.218376159668,participant14,24,59.6985966011,M,trial,2017_May_28_1755,
,,0.49,"[4.5, 0]",/sounds/legit/right70.wav,,,,,,,,,5,21,196,13,,,,,,,,,,,,,,,right,0.135111093521,participant14,24,59.6985966011,M,trial,2017_May_28_1755,
,,0.36,"[-6.75, 0]",/sounds/legit/left100.wav,,,,,,,,,5,22,197,32,,,,,,,,,,,,,,,left,0.0182158946991,participant14,24,59.6985966011,M,trial,2017_May_28_1755,
,,0.49,"[0, 0]",/sounds/legit/equal.wav,,,,,,,,,5,23,198,3,,,,,,,,,,,,,,,left,3.57553100586,participant14,24,59.6985966011,M,trial,2017_May_28_1755,
,,0.36,"[-4.5, 0]",/sounds/legit/left70.wav,,,,,,,,,5,24,199,27,,,,,,,,,,,,,,,left,0.0841770172119,participant14,24,59.6985966011,M,trial,2017_May_28_1755,
,,0.36,"[-2.25, 0]",/sounds/legit/left35.wav,,,,,,,,,5,25,200,22,,,,,,,,,,,,,,,left,0.0514647960663,participant14,24,59.6985966011,M,trial,2017_May_28_1755,
,,0.36,"[4.5, 0]",/sounds/legit/right70.wav,,,,,,,,,5,26,201,12,,,,,,,,,,,,,,,right,0.00134992599487,participant14,24,59.6985966011,M,trial,2017_May_28_1755,
,,0.23,"[-2.25, 0]",/sounds/legit/left35.wav,,,,,,,,,5,27,202,21,,,,,,,,,,,,,,,left,0.16857790947,participant14,24,59.6985966011,M,trial,2017_May_28_1755,
,,0.49,"[6.75, 0]",/sounds/legit/right100.wav,,,,,,,,,5,28,203,18,,,,,,,,,,,,,,,right,0.70277094841,participant14,24,59.6985966011,M,trial,2017_May_28_1755,
,,0.49,"[6.75, 0]",/sounds/legit/right100.wav,,,,,,,,,5,29,204,18,,,,,,,,,,,,,,,right,0.268440961838,participant14,24,59.6985966011,M,trial,2017_May_28_1755,
,,0.23,"[4.5, 0]",/sounds/legit/right70.wav,,,,,,,,,5,30,205,11,,,,,,,,,,,,,,,right,0.218776941299,participant14,24,59.6985966011,M,trial,2017_May_28_1755,
,,0.1,"[6.75, 0]",/sounds/legit/right100.wav,,,,,,,,,5,31,206,15,,,,,,,,,,,,,,,right,0.135043144226,participant14,24,59.6985966011,M,trial,2017_May_28_1755,
,,0.36,"[6.75, 0]",/sounds/legit/right100.wav,,,,,,,,,5,32,207,17,,,,,,,,,,,,,,,right,0.168261051178,participant14,24,59.6985966011,M,trial,2017_May_28_1755,
,,0.62,"[-6.75, 0]",/sounds/legit/left100.wav,,,,,,,,,5,33,208,34,,,,,,,,,,,,,,,left,0.11834692955,participant14,24,59.6985966011,M,trial,2017_May_28_1755,
,,0.62,"[4.5, 0]",/sounds/legit/right70.wav,,,,,,,,,5,34,209,14,,,,,,,,,,,,,,,right,0.150702953339,participant14,24,59.6985966011,M,trial,2017_May_28_1755,
,,0.49,"[-6.75, 0]",/sounds/legit/left100.wav,,,,,,,,,6,0,210,33,,,,,,,,,,,,,,,left,0.101644992828,participant14,24,59.6985966011,M,trial,2017_May_28_1755,
,,0.36,"[-2.25, 0]",/sounds/legit/left35.wav,,,,,,,,,6,1,211,22,,,,,,,,,,,,,,,left,0.00142598152161,participant14,24,59.6985966011,M,trial,2017_May_28_1755,
,,0.1,"[-2.25, 0]",/sounds/legit/left35.wav,,,,,,,,,6,2,212,20,,,,,,,,,,,,,,,left,0.235172986984,participant14,24,59.6985966011,M,trial,2017_May_28_1755,
,,0.49,"[6.75, 0]",/sounds/legit/right100.wav,,,,,,,,,6,3,213,18,,,,,,,,,,,,,,,right,0.50252199173,participant14,24,59.6985966011,M,trial,2017_May_28_1755,
,,0.1,"[-2.25, 0]",/sounds/legit/left35.wav,,,,,,,,,6,4,214,20,,,,,,,,,,,,,,,left,0.0181229114532,participant14,24,59.6985966011,M,trial,2017_May_28_1755,
,,0.23,"[-6.75, 0]",/sounds/legit/left100.wav,,,,,,,,,6,5,215,31,,,,,,,,,,,,,,,left,0.118339061737,participant14,24,59.6985966011,M,trial,2017_May_28_1755,
,,0.1,"[0, 0]",/sounds/legit/equal.wav,,,,,,,,,6,6,216,0,,,,,,,,,,,,,,,left,0.0512590408325,participant14,24,59.6985966011,M,trial,2017_May_28_1755,
,,0.1,"[-2.25, 0]",/sounds/legit/left35.wav,,,,,,,,,6,7,217,20,,,,,,,,,,,,,,,left,0.134835004807,participant14,24,59.6985966011,M,trial,2017_May_28_1755,
,,0.23,"[6.75, 0]",/sounds/legit/right100.wav,,,,,,,,,6,8,218,16,,,,,,,,,,,,,,,right,0.0681581497192,participant14,24,59.6985966011,M,trial,2017_May_28_1755,
,,0.1,"[-2.25, 0]",/sounds/legit/left35.wav,,,,,,,,,6,9,219,20,,,,,,,,,,,,,,,left,0.151813983917,participant14,24,59.6985966011,M,trial,2017_May_28_1755,
,,0.1,"[4.5, 0]",/sounds/legit/right70.wav,,,,,,,,,6,10,220,10,,,,,,,,,,,,,,,right,0.0678009986877,participant14,24,59.6985966011,M,trial,2017_May_28_1755,
,,0.62,"[2.25, 0]",/sounds/legit/right35.wav,,,,,,,,,6,11,221,9,,,,,,,,,,,,,,,right,0.0682048797607,participant14,24,59.6985966011,M,trial,2017_May_28_1755,
,,0.62,"[2.25, 0]",/sounds/legit/right35.wav,,,,,,,,,6,12,222,9,,,,,,,,,,,,,,,right,0.502435207367,participant14,24,59.6985966011,M,trial,2017_May_28_1755,
,,0.62,"[-4.5, 0]",/sounds/legit/left70.wav,,,,,,,,,6,13,223,29,,,,,,,,,,,,,,,left,0.118139982224,participant14,24,59.6985966011,M,trial,2017_May_28_1755,
