path,name,noise,location,correspondingAudio,audiotrials.thisRepN,audiotrials.thisTrialN,audiotrials.thisN,audiotrials.thisIndex,visualTrials.thisRepN,visualTrials.thisTrialN,visualTrials.thisN,visualTrials.thisIndex,combinedTrials.thisRepN,combinedTrials.thisTrialN,combinedTrials.thisN,combinedTrials.thisIndex,WelcomeKey.keys,WelcomeKey.rt,key_resp_2.keys,key_resp_2.rt,AudioInstrAccept.keys,AudioInstrAccept.rt,LeftorRight.keys,LeftorRight.rt,VisualBlock.keys,VisualBlock.rt,VisualDecision.keys,VisualDecision.rt,CombinedAccept.keys,CombinedAccept.rt,CombComparisonResponse.keys,CombComparisonResponse.rt,participant,age,frameRate,sex,expName,date,
,,,,,,,,,,,,,,,,,space,13.1940040588,,,,,,,,,,,,,,,Participant16,23,60.0986670067,Male,trial,2017_May_29_1247,
,,,,,,,,,,,,,,,,,,,space,14.9590761662,,,,,,,,,,,,,Participant16,23,60.0986670067,Male,trial,2017_May_29_1247,
,,,,,,,,,,,,,,,,,,,,,space,16.6281089783,,,,,,,,,,,Participant16,23,60.0986670067,Male,trial,2017_May_29_1247,
/sounds/legit/left35.wav,left30,,,,0,0,0,2,,,,,,,,,,,,,,,left,3.25433588028,,,,,,,,,Participant16,23,60.0986670067,Male,trial,2017_May_29_1247,
/sounds/legit/right70.wav,right60,,,,0,1,1,4,,,,,,,,,,,,,,,right,0.883656024933,,,,,,,,,Participant16,23,60.0986670067,Male,trial,2017_May_29_1247,
/sounds/legit/equal.wav,equal,,,,0,2,2,6,,,,,,,,,,,,,,,left,3.5708220005,,,,,,,,,Participant16,23,60.0986670067,Male,trial,2017_May_29_1247,
/sounds/legit/right35.wav,right30,,,,0,3,3,3,,,,,,,,,,,,,,,right,0.251019954681,,,,,,,,,Participant16,23,60.0986670067,Male,trial,2017_May_29_1247,
/sounds/legit/right100.wav,right100,,,,0,4,4,5,,,,,,,,,,,,,,,right,0.418076992035,,,,,,,,,Participant16,23,60.0986670067,Male,trial,2017_May_29_1247,
/sounds/legit/left70.wav,left60,,,,0,5,5,1,,,,,,,,,,,,,,,left,0.334771156311,,,,,,,,,Participant16,23,60.0986670067,Male,trial,2017_May_29_1247,
/sounds/legit/left100.wav,left100,,,,0,6,6,0,,,,,,,,,,,,,,,left,0.318846940994,,,,,,,,,Participant16,23,60.0986670067,Male,trial,2017_May_29_1247,
/sounds/legit/left70.wav,left60,,,,1,0,7,1,,,,,,,,,,,,,,,left,0.251204967499,,,,,,,,,Participant16,23,60.0986670067,Male,trial,2017_May_29_1247,
/sounds/legit/right35.wav,right30,,,,1,1,8,3,,,,,,,,,,,,,,,right,0.217597961426,,,,,,,,,Participant16,23,60.0986670067,Male,trial,2017_May_29_1247,
/sounds/legit/equal.wav,equal,,,,1,2,9,6,,,,,,,,,,,,,,,left,1.76875710487,,,,,,,,,Participant16,23,60.0986670067,Male,trial,2017_May_29_1247,
/sounds/legit/right100.wav,right100,,,,1,3,10,5,,,,,,,,,,,,,,,right,0.00160002708435,,,,,,,,,Participant16,23,60.0986670067,Male,trial,2017_May_29_1247,
/sounds/legit/left35.wav,left30,,,,1,4,11,2,,,,,,,,,,,,,,,left,0.233314037323,,,,,,,,,Participant16,23,60.0986670067,Male,trial,2017_May_29_1247,
/sounds/legit/left100.wav,left100,,,,1,5,12,0,,,,,,,,,,,,,,,left,0.23442196846,,,,,,,,,Participant16,23,60.0986670067,Male,trial,2017_May_29_1247,
/sounds/legit/right70.wav,right60,,,,1,6,13,4,,,,,,,,,,,,,,,right,0.267719984055,,,,,,,,,Participant16,23,60.0986670067,Male,trial,2017_May_29_1247,
/sounds/legit/equal.wav,equal,,,,2,0,14,6,,,,,,,,,,,,,,,right,0.385023117065,,,,,,,,,Participant16,23,60.0986670067,Male,trial,2017_May_29_1247,
/sounds/legit/left100.wav,left100,,,,2,1,15,0,,,,,,,,,,,,,,,left,0.185205936432,,,,,,,,,Participant16,23,60.0986670067,Male,trial,2017_May_29_1247,
/sounds/legit/right70.wav,right60,,,,2,2,16,4,,,,,,,,,,,,,,,right,0.252233982086,,,,,,,,,Participant16,23,60.0986670067,Male,trial,2017_May_29_1247,
/sounds/legit/left70.wav,left60,,,,2,3,17,1,,,,,,,,,,,,,,,left,0.20134305954,,,,,,,,,Participant16,23,60.0986670067,Male,trial,2017_May_29_1247,
/sounds/legit/right35.wav,right30,,,,2,4,18,3,,,,,,,,,,,,,,,right,0.301997900009,,,,,,,,,Participant16,23,60.0986670067,Male,trial,2017_May_29_1247,
/sounds/legit/left35.wav,left30,,,,2,5,19,2,,,,,,,,,,,,,,,left,0.401955842972,,,,,,,,,Participant16,23,60.0986670067,Male,trial,2017_May_29_1247,
/sounds/legit/right100.wav,right100,,,,2,6,20,5,,,,,,,,,,,,,,,right,0.252105951309,,,,,,,,,Participant16,23,60.0986670067,Male,trial,2017_May_29_1247,
/sounds/legit/right100.wav,right100,,,,3,0,21,5,,,,,,,,,,,,,,,right,0.252665996552,,,,,,,,,Participant16,23,60.0986670067,Male,trial,2017_May_29_1247,
/sounds/legit/left35.wav,left30,,,,3,1,22,2,,,,,,,,,,,,,,,left,0.234321832657,,,,,,,,,Participant16,23,60.0986670067,Male,trial,2017_May_29_1247,
/sounds/legit/equal.wav,equal,,,,3,2,23,6,,,,,,,,,,,,,,,right,0.451481103897,,,,,,,,,Participant16,23,60.0986670067,Male,trial,2017_May_29_1247,
/sounds/legit/left70.wav,left60,,,,3,3,24,1,,,,,,,,,,,,,,,left,0.101073980331,,,,,,,,,Participant16,23,60.0986670067,Male,trial,2017_May_29_1247,
/sounds/legit/right35.wav,right30,,,,3,4,25,3,,,,,,,,,,,,,,,right,0.25211596489,,,,,,,,,Participant16,23,60.0986670067,Male,trial,2017_May_29_1247,
/sounds/legit/right70.wav,right60,,,,3,5,26,4,,,,,,,,,,,,,,,right,0.25229716301,,,,,,,,,Participant16,23,60.0986670067,Male,trial,2017_May_29_1247,
/sounds/legit/left100.wav,left100,,,,3,6,27,0,,,,,,,,,,,,,,,left,0.234335899353,,,,,,,,,Participant16,23,60.0986670067,Male,trial,2017_May_29_1247,
/sounds/legit/right35.wav,right30,,,,4,0,28,3,,,,,,,,,,,,,,,right,0.301415920258,,,,,,,,,Participant16,23,60.0986670067,Male,trial,2017_May_29_1247,
/sounds/legit/right100.wav,right100,,,,4,1,29,5,,,,,,,,,,,,,,,right,0.252617835999,,,,,,,,,Participant16,23,60.0986670067,Male,trial,2017_May_29_1247,
/sounds/legit/right70.wav,right60,,,,4,2,30,4,,,,,,,,,,,,,,,right,0.284871101379,,,,,,,,,Participant16,23,60.0986670067,Male,trial,2017_May_29_1247,
/sounds/legit/left70.wav,left60,,,,4,3,31,1,,,,,,,,,,,,,,,left,0.201259851456,,,,,,,,,Participant16,23,60.0986670067,Male,trial,2017_May_29_1247,
/sounds/legit/left100.wav,left100,,,,4,4,32,0,,,,,,,,,,,,,,,left,0.200856924057,,,,,,,,,Participant16,23,60.0986670067,Male,trial,2017_May_29_1247,
/sounds/legit/left35.wav,left30,,,,4,5,33,2,,,,,,,,,,,,,,,left,1.13470482826,,,,,,,,,Participant16,23,60.0986670067,Male,trial,2017_May_29_1247,
/sounds/legit/equal.wav,equal,,,,4,6,34,6,,,,,,,,,,,,,,,right,0.368453025818,,,,,,,,,Participant16,23,60.0986670067,Male,trial,2017_May_29_1247,
/sounds/legit/right100.wav,right100,,,,5,0,35,5,,,,,,,,,,,,,,,right,0.23436999321,,,,,,,,,Participant16,23,60.0986670067,Male,trial,2017_May_29_1247,
/sounds/legit/left100.wav,left100,,,,5,1,36,0,,,,,,,,,,,,,,,left,0.219432115555,,,,,,,,,Participant16,23,60.0986670067,Male,trial,2017_May_29_1247,
/sounds/legit/right70.wav,right60,,,,5,2,37,4,,,,,,,,,,,,,,,right,0.301562070847,,,,,,,,,Participant16,23,60.0986670067,Male,trial,2017_May_29_1247,
/sounds/legit/equal.wav,equal,,,,5,3,38,6,,,,,,,,,,,,,,,left,0.885574102402,,,,,,,,,Participant16,23,60.0986670067,Male,trial,2017_May_29_1247,
/sounds/legit/left70.wav,left60,,,,5,4,39,1,,,,,,,,,,,,,,,left,0.285362005234,,,,,,,,,Participant16,23,60.0986670067,Male,trial,2017_May_29_1247,
/sounds/legit/left35.wav,left30,,,,5,5,40,2,,,,,,,,,,,,,,,left,0.184245109558,,,,,,,,,Participant16,23,60.0986670067,Male,trial,2017_May_29_1247,
/sounds/legit/right35.wav,right30,,,,5,6,41,3,,,,,,,,,,,,,,,left,0.585005998611,,,,,,,,,Participant16,23,60.0986670067,Male,trial,2017_May_29_1247,
/sounds/legit/left35.wav,left30,,,,6,0,42,2,,,,,,,,,,,,,,,left,0.436300039291,,,,,,,,,Participant16,23,60.0986670067,Male,trial,2017_May_29_1247,
/sounds/legit/right70.wav,right60,,,,6,1,43,4,,,,,,,,,,,,,,,right,0.251106977463,,,,,,,,,Participant16,23,60.0986670067,Male,trial,2017_May_29_1247,
/sounds/legit/left70.wav,left60,,,,6,2,44,1,,,,,,,,,,,,,,,left,0.219064950943,,,,,,,,,Participant16,23,60.0986670067,Male,trial,2017_May_29_1247,
/sounds/legit/left100.wav,left100,,,,6,3,45,0,,,,,,,,,,,,,,,left,0.26917219162,,,,,,,,,Participant16,23,60.0986670067,Male,trial,2017_May_29_1247,
/sounds/legit/right100.wav,right100,,,,6,4,46,5,,,,,,,,,,,,,,,right,0.270281076431,,,,,,,,,Participant16,23,60.0986670067,Male,trial,2017_May_29_1247,
/sounds/legit/equal.wav,equal,,,,6,5,47,6,,,,,,,,,,,,,,,right,0.46772313118,,,,,,,,,Participant16,23,60.0986670067,Male,trial,2017_May_29_1247,
/sounds/legit/right35.wav,right30,,,,6,6,48,3,,,,,,,,,,,,,,,right,0.251615047455,,,,,,,,,Participant16,23,60.0986670067,Male,trial,2017_May_29_1247,
/sounds/legit/left35.wav,left30,,,,7,0,49,2,,,,,,,,,,,,,,,left,0.667982816696,,,,,,,,,Participant16,23,60.0986670067,Male,trial,2017_May_29_1247,
/sounds/legit/right35.wav,right30,,,,7,1,50,3,,,,,,,,,,,,,,,right,0.634421110153,,,,,,,,,Participant16,23,60.0986670067,Male,trial,2017_May_29_1247,
/sounds/legit/equal.wav,equal,,,,7,2,51,6,,,,,,,,,,,,,,,left,2.18613100052,,,,,,,,,Participant16,23,60.0986670067,Male,trial,2017_May_29_1247,
/sounds/legit/right100.wav,right100,,,,7,3,52,5,,,,,,,,,,,,,,,right,0.367476940155,,,,,,,,,Participant16,23,60.0986670067,Male,trial,2017_May_29_1247,
/sounds/legit/left100.wav,left100,,,,7,4,53,0,,,,,,,,,,,,,,,left,0.368783950806,,,,,,,,,Participant16,23,60.0986670067,Male,trial,2017_May_29_1247,
/sounds/legit/left70.wav,left60,,,,7,5,54,1,,,,,,,,,,,,,,,left,0.33477807045,,,,,,,,,Participant16,23,60.0986670067,Male,trial,2017_May_29_1247,
/sounds/legit/right70.wav,right60,,,,7,6,55,4,,,,,,,,,,,,,,,right,0.316509962082,,,,,,,,,Participant16,23,60.0986670067,Male,trial,2017_May_29_1247,
/sounds/legit/left35.wav,left30,,,,8,0,56,2,,,,,,,,,,,,,,,left,0.0850231647491,,,,,,,,,Participant16,23,60.0986670067,Male,trial,2017_May_29_1247,
/sounds/legit/right100.wav,right100,,,,8,1,57,5,,,,,,,,,,,,,,,right,0.201537132263,,,,,,,,,Participant16,23,60.0986670067,Male,trial,2017_May_29_1247,
/sounds/legit/left70.wav,left60,,,,8,2,58,1,,,,,,,,,,,,,,,left,0.218080997467,,,,,,,,,Participant16,23,60.0986670067,Male,trial,2017_May_29_1247,
/sounds/legit/equal.wav,equal,,,,8,3,59,6,,,,,,,,,,,,,,,right,0.368822097778,,,,,,,,,Participant16,23,60.0986670067,Male,trial,2017_May_29_1247,
/sounds/legit/left100.wav,left100,,,,8,4,60,0,,,,,,,,,,,,,,,left,0.350835084915,,,,,,,,,Participant16,23,60.0986670067,Male,trial,2017_May_29_1247,
/sounds/legit/right35.wav,right30,,,,8,5,61,3,,,,,,,,,,,,,,,right,0.235527992249,,,,,,,,,Participant16,23,60.0986670067,Male,trial,2017_May_29_1247,
/sounds/legit/right70.wav,right60,,,,8,6,62,4,,,,,,,,,,,,,,,right,0.235121965408,,,,,,,,,Participant16,23,60.0986670067,Male,trial,2017_May_29_1247,
/sounds/legit/equal.wav,equal,,,,9,0,63,6,,,,,,,,,,,,,,,right,0.967998981476,,,,,,,,,Participant16,23,60.0986670067,Male,trial,2017_May_29_1247,
/sounds/legit/right70.wav,right60,,,,9,1,64,4,,,,,,,,,,,,,,,right,0.219326019287,,,,,,,,,Participant16,23,60.0986670067,Male,trial,2017_May_29_1247,
/sounds/legit/right100.wav,right100,,,,9,2,65,5,,,,,,,,,,,,,,,right,0.184087991714,,,,,,,,,Participant16,23,60.0986670067,Male,trial,2017_May_29_1247,
/sounds/legit/left35.wav,left30,,,,9,3,66,2,,,,,,,,,,,,,,,left,0.218188047409,,,,,,,,,Participant16,23,60.0986670067,Male,trial,2017_May_29_1247,
/sounds/legit/right35.wav,right30,,,,9,4,67,3,,,,,,,,,,,,,,,right,0.0843689441681,,,,,,,,,Participant16,23,60.0986670067,Male,trial,2017_May_29_1247,
/sounds/legit/left100.wav,left100,,,,9,5,68,0,,,,,,,,,,,,,,,left,0.117769002914,,,,,,,,,Participant16,23,60.0986670067,Male,trial,2017_May_29_1247,
/sounds/legit/left70.wav,left60,,,,9,6,69,1,,,,,,,,,,,,,,,left,0.185317993164,,,,,,,,,Participant16,23,60.0986670067,Male,trial,2017_May_29_1247,
,,,,,,,,,,,,,,,,,,,,,,,,,space,14.392524004,,,,,,,Participant16,23,60.0986670067,Male,trial,2017_May_29_1247,
,,0.1,"[4.5, 0]",/sounds/legit/right70.wav,,,,,0,0,0,10,,,,,,,,,,,,,,,right,6.60408711433,,,,,Participant16,23,60.0986670067,Male,trial,2017_May_29_1247,
,,0.49,"[-2.25, 0]",/sounds/legit/left35.wav,,,,,0,1,1,23,,,,,,,,,,,,,,,right,0.885668992996,,,,,Participant16,23,60.0986670067,Male,trial,2017_May_29_1247,
,,0.36,"[4.5, 0]",/sounds/legit/right70.wav,,,,,0,2,2,12,,,,,,,,,,,,,,,left,0.667824983597,,,,,Participant16,23,60.0986670067,Male,trial,2017_May_29_1247,
,,0.62,"[-6.75, 0]",/sounds/legit/left100.wav,,,,,0,3,3,34,,,,,,,,,,,,,,,right,2.58631706238,,,,,Participant16,23,60.0986670067,Male,trial,2017_May_29_1247,
,,0.23,"[-6.75, 0]",/sounds/legit/left100.wav,,,,,0,4,4,31,,,,,,,,,,,,,,,left,0.650512933731,,,,,Participant16,23,60.0986670067,Male,trial,2017_May_29_1247,
,,0.49,"[6.75, 0]",/sounds/legit/right100.wav,,,,,0,5,5,18,,,,,,,,,,,,,,,right,0.334279060364,,,,,Participant16,23,60.0986670067,Male,trial,2017_May_29_1247,
,,0.49,"[4.5, 0]",/sounds/legit/right70.wav,,,,,0,6,6,13,,,,,,,,,,,,,,,left,0.517521858215,,,,,Participant16,23,60.0986670067,Male,trial,2017_May_29_1247,
,,0.23,"[-2.25, 0]",/sounds/legit/left35.wav,,,,,0,7,7,21,,,,,,,,,,,,,,,left,0.585438013077,,,,,Participant16,23,60.0986670067,Male,trial,2017_May_29_1247,
,,0.62,"[-4.5, 0]",/sounds/legit/left70.wav,,,,,0,8,8,29,,,,,,,,,,,,,,,left,0.819044113159,,,,,Participant16,23,60.0986670067,Male,trial,2017_May_29_1247,
,,0.62,"[-2.25, 0]",/sounds/legit/left35.wav,,,,,0,9,9,24,,,,,,,,,,,,,,,left,0.6018679142,,,,,Participant16,23,60.0986670067,Male,trial,2017_May_29_1247,
,,0.62,"[4.5, 0]",/sounds/legit/right70.wav,,,,,0,10,10,14,,,,,,,,,,,,,,,right,0.234354019165,,,,,Participant16,23,60.0986670067,Male,trial,2017_May_29_1247,
,,0.49,"[2.25, 0]",/sounds/legit/right35.wav,,,,,0,11,11,8,,,,,,,,,,,,,,,right,0.501051187515,,,,,Participant16,23,60.0986670067,Male,trial,2017_May_29_1247,
,,0.36,"[6.75, 0]",/sounds/legit/right100.wav,,,,,0,12,12,17,,,,,,,,,,,,,,,right,0.150990962982,,,,,Participant16,23,60.0986670067,Male,trial,2017_May_29_1247,
,,0.49,"[0, 0]",/sounds/legit/equal.wav,,,,,0,13,13,3,,,,,,,,,,,,,,,left,0.634645938873,,,,,Participant16,23,60.0986670067,Male,trial,2017_May_29_1247,
,,0.49,"[-4.5, 0]",/sounds/legit/left70.wav,,,,,0,14,14,28,,,,,,,,,,,,,,,left,0.300708055496,,,,,Participant16,23,60.0986670067,Male,trial,2017_May_29_1247,
,,0.23,"[2.25, 0]",/sounds/legit/right35.wav,,,,,0,15,15,6,,,,,,,,,,,,,,,right,0.134698152542,,,,,Participant16,23,60.0986670067,Male,trial,2017_May_29_1247,
,,0.1,"[-4.5, 0]",/sounds/legit/left70.wav,,,,,0,16,16,25,,,,,,,,,,,,,,,left,0.2688331604,,,,,Participant16,23,60.0986670067,Male,trial,2017_May_29_1247,
,,0.23,"[6.75, 0]",/sounds/legit/right100.wav,,,,,0,17,17,16,,,,,,,,,,,,,,,right,0.117723941803,,,,,Participant16,23,60.0986670067,Male,trial,2017_May_29_1247,
,,0.1,"[6.75, 0]",/sounds/legit/right100.wav,,,,,0,18,18,15,,,,,,,,,,,,,,,right,0.451594829559,,,,,Participant16,23,60.0986670067,Male,trial,2017_May_29_1247,
,,0.36,"[-6.75, 0]",/sounds/legit/left100.wav,,,,,0,19,19,32,,,,,,,,,,,,,,,left,0.401582956314,,,,,Participant16,23,60.0986670067,Male,trial,2017_May_29_1247,
,,0.62,"[6.75, 0]",/sounds/legit/right100.wav,,,,,0,20,20,19,,,,,,,,,,,,,,,right,0.252517938614,,,,,Participant16,23,60.0986670067,Male,trial,2017_May_29_1247,
,,0.1,"[0, 0]",/sounds/legit/equal.wav,,,,,0,21,21,0,,,,,,,,,,,,,,,right,0.701679944992,,,,,Participant16,23,60.0986670067,Male,trial,2017_May_29_1247,
,,0.1,"[2.25, 0]",/sounds/legit/right35.wav,,,,,0,22,22,5,,,,,,,,,,,,,,,right,0.5841588974,,,,,Participant16,23,60.0986670067,Male,trial,2017_May_29_1247,
,,0.23,"[-4.5, 0]",/sounds/legit/left70.wav,,,,,0,23,23,26,,,,,,,,,,,,,,,left,0.268537044525,,,,,Participant16,23,60.0986670067,Male,trial,2017_May_29_1247,
,,0.49,"[-6.75, 0]",/sounds/legit/left100.wav,,,,,0,24,24,33,,,,,,,,,,,,,,,left,0.251266956329,,,,,Participant16,23,60.0986670067,Male,trial,2017_May_29_1247,
,,0.36,"[-2.25, 0]",/sounds/legit/left35.wav,,,,,0,25,25,22,,,,,,,,,,,,,,,left,0.134924888611,,,,,Participant16,23,60.0986670067,Male,trial,2017_May_29_1247,
,,0.23,"[0, 0]",/sounds/legit/equal.wav,,,,,0,26,26,1,,,,,,,,,,,,,,,left,0.76819896698,,,,,Participant16,23,60.0986670067,Male,trial,2017_May_29_1247,
,,0.62,"[2.25, 0]",/sounds/legit/right35.wav,,,,,0,27,27,9,,,,,,,,,,,,,,,right,0.351716041565,,,,,Participant16,23,60.0986670067,Male,trial,2017_May_29_1247,
,,0.36,"[2.25, 0]",/sounds/legit/right35.wav,,,,,0,28,28,7,,,,,,,,,,,,,,,right,3.26825809479,,,,,Participant16,23,60.0986670067,Male,trial,2017_May_29_1247,
,,0.1,"[-6.75, 0]",/sounds/legit/left100.wav,,,,,0,29,29,30,,,,,,,,,,,,,,,left,0.117831230164,,,,,Participant16,23,60.0986670067,Male,trial,2017_May_29_1247,
,,0.23,"[4.5, 0]",/sounds/legit/right70.wav,,,,,0,30,30,11,,,,,,,,,,,,,,,right,0.00152897834778,,,,,Participant16,23,60.0986670067,Male,trial,2017_May_29_1247,
,,0.36,"[0, 0]",/sounds/legit/equal.wav,,,,,0,31,31,2,,,,,,,,,,,,,,,right,0.284263134003,,,,,Participant16,23,60.0986670067,Male,trial,2017_May_29_1247,
,,0.36,"[-4.5, 0]",/sounds/legit/left70.wav,,,,,0,32,32,27,,,,,,,,,,,,,,,left,0.318274021149,,,,,Participant16,23,60.0986670067,Male,trial,2017_May_29_1247,
,,0.1,"[-2.25, 0]",/sounds/legit/left35.wav,,,,,0,33,33,20,,,,,,,,,,,,,,,left,0.235682010651,,,,,Participant16,23,60.0986670067,Male,trial,2017_May_29_1247,
,,0.62,"[0, 0]",/sounds/legit/equal.wav,,,,,0,34,34,4,,,,,,,,,,,,,,,right,0.368295907974,,,,,Participant16,23,60.0986670067,Male,trial,2017_May_29_1247,
,,0.62,"[-2.25, 0]",/sounds/legit/left35.wav,,,,,1,0,35,24,,,,,,,,,,,,,,,left,0.234040021896,,,,,Participant16,23,60.0986670067,Male,trial,2017_May_29_1247,
,,0.49,"[-4.5, 0]",/sounds/legit/left70.wav,,,,,1,1,36,28,,,,,,,,,,,,,,,left,0.151960134506,,,,,Participant16,23,60.0986670067,Male,trial,2017_May_29_1247,
,,0.1,"[4.5, 0]",/sounds/legit/right70.wav,,,,,1,2,37,10,,,,,,,,,,,,,,,right,0.0344071388245,,,,,Participant16,23,60.0986670067,Male,trial,2017_May_29_1247,
,,0.1,"[-4.5, 0]",/sounds/legit/left70.wav,,,,,1,3,38,25,,,,,,,,,,,,,,,left,0.301960945129,,,,,Participant16,23,60.0986670067,Male,trial,2017_May_29_1247,
,,0.23,"[2.25, 0]",/sounds/legit/right35.wav,,,,,1,4,39,6,,,,,,,,,,,,,,,right,2.95336008072,,,,,Participant16,23,60.0986670067,Male,trial,2017_May_29_1247,
,,0.23,"[6.75, 0]",/sounds/legit/right100.wav,,,,,1,5,40,16,,,,,,,,,,,,,,,right,0.118661880493,,,,,Participant16,23,60.0986670067,Male,trial,2017_May_29_1247,
,,0.49,"[4.5, 0]",/sounds/legit/right70.wav,,,,,1,6,41,13,,,,,,,,,,,,,,,right,0.218384981155,,,,,Participant16,23,60.0986670067,Male,trial,2017_May_29_1247,
,,0.1,"[-6.75, 0]",/sounds/legit/left100.wav,,,,,1,7,42,30,,,,,,,,,,,,,,,left,2.80180311203,,,,,Participant16,23,60.0986670067,Male,trial,2017_May_29_1247,
,,0.36,"[4.5, 0]",/sounds/legit/right70.wav,,,,,1,8,43,12,,,,,,,,,,,,,,,right,3.12071299553,,,,,Participant16,23,60.0986670067,Male,trial,2017_May_29_1247,
,,0.36,"[6.75, 0]",/sounds/legit/right100.wav,,,,,1,9,44,17,,,,,,,,,,,,,,,right,0.31906914711,,,,,Participant16,23,60.0986670067,Male,trial,2017_May_29_1247,
,,0.36,"[-2.25, 0]",/sounds/legit/left35.wav,,,,,1,10,45,22,,,,,,,,,,,,,,,left,0.0353009700775,,,,,Participant16,23,60.0986670067,Male,trial,2017_May_29_1247,
,,0.49,"[2.25, 0]",/sounds/legit/right35.wav,,,,,1,11,46,8,,,,,,,,,,,,,,,right,0.218183040619,,,,,Participant16,23,60.0986670067,Male,trial,2017_May_29_1247,
,,0.36,"[2.25, 0]",/sounds/legit/right35.wav,,,,,1,12,47,7,,,,,,,,,,,,,,,right,0.236229896545,,,,,Participant16,23,60.0986670067,Male,trial,2017_May_29_1247,
,,0.23,"[-6.75, 0]",/sounds/legit/left100.wav,,,,,1,13,48,31,,,,,,,,,,,,,,,left,0.368931055069,,,,,Participant16,23,60.0986670067,Male,trial,2017_May_29_1247,
,,0.1,"[0, 0]",/sounds/legit/equal.wav,,,,,1,14,49,0,,,,,,,,,,,,,,,right,1.50254797935,,,,,Participant16,23,60.0986670067,Male,trial,2017_May_29_1247,
,,0.23,"[-4.5, 0]",/sounds/legit/left70.wav,,,,,1,15,50,26,,,,,,,,,,,,,,,left,0.385598897934,,,,,Participant16,23,60.0986670067,Male,trial,2017_May_29_1247,
,,0.36,"[-6.75, 0]",/sounds/legit/left100.wav,,,,,1,16,51,32,,,,,,,,,,,,,,,left,0.33486700058,,,,,Participant16,23,60.0986670067,Male,trial,2017_May_29_1247,
,,0.49,"[-2.25, 0]",/sounds/legit/left35.wav,,,,,1,17,52,23,,,,,,,,,,,,,,,left,0.13432097435,,,,,Participant16,23,60.0986670067,Male,trial,2017_May_29_1247,
,,0.49,"[-6.75, 0]",/sounds/legit/left100.wav,,,,,1,18,53,33,,,,,,,,,,,,,,,left,0.252036094666,,,,,Participant16,23,60.0986670067,Male,trial,2017_May_29_1247,
,,0.62,"[0, 0]",/sounds/legit/equal.wav,,,,,1,19,54,4,,,,,,,,,,,,,,,right,0.400999069214,,,,,Participant16,23,60.0986670067,Male,trial,2017_May_29_1247,
,,0.1,"[6.75, 0]",/sounds/legit/right100.wav,,,,,1,20,55,15,,,,,,,,,,,,,,,right,0.0848138332367,,,,,Participant16,23,60.0986670067,Male,trial,2017_May_29_1247,
,,0.62,"[6.75, 0]",/sounds/legit/right100.wav,,,,,1,21,56,19,,,,,,,,,,,,,,,right,0.151520013809,,,,,Participant16,23,60.0986670067,Male,trial,2017_May_29_1247,
,,0.49,"[6.75, 0]",/sounds/legit/right100.wav,,,,,1,22,57,18,,,,,,,,,,,,,,,right,0.316871166229,,,,,Participant16,23,60.0986670067,Male,trial,2017_May_29_1247,
,,0.62,"[-6.75, 0]",/sounds/legit/left100.wav,,,,,1,23,58,34,,,,,,,,,,,,,,,left,0.168647050858,,,,,Participant16,23,60.0986670067,Male,trial,2017_May_29_1247,
,,0.36,"[-4.5, 0]",/sounds/legit/left70.wav,,,,,1,24,59,27,,,,,,,,,,,,,,,left,0.319400072098,,,,,Participant16,23,60.0986670067,Male,trial,2017_May_29_1247,
,,0.23,"[4.5, 0]",/sounds/legit/right70.wav,,,,,1,25,60,11,,,,,,,,,,,,,,,right,2.83629703522,,,,,Participant16,23,60.0986670067,Male,trial,2017_May_29_1247,
,,0.62,"[-4.5, 0]",/sounds/legit/left70.wav,,,,,1,26,61,29,,,,,,,,,,,,,,,left,0.151949167252,,,,,Participant16,23,60.0986670067,Male,trial,2017_May_29_1247,
,,0.49,"[0, 0]",/sounds/legit/equal.wav,,,,,1,27,62,3,,,,,,,,,,,,,,,right,0.234230041504,,,,,Participant16,23,60.0986670067,Male,trial,2017_May_29_1247,
,,0.62,"[2.25, 0]",/sounds/legit/right35.wav,,,,,1,28,63,9,,,,,,,,,,,,,,,right,1.7360830307,,,,,Participant16,23,60.0986670067,Male,trial,2017_May_29_1247,
,,0.23,"[0, 0]",/sounds/legit/equal.wav,,,,,1,29,64,1,,,,,,,,,,,,,,,right,0.96968793869,,,,,Participant16,23,60.0986670067,Male,trial,2017_May_29_1247,
,,0.1,"[2.25, 0]",/sounds/legit/right35.wav,,,,,1,30,65,5,,,,,,,,,,,,,,,right,0.485158920288,,,,,Participant16,23,60.0986670067,Male,trial,2017_May_29_1247,
,,0.1,"[-2.25, 0]",/sounds/legit/left35.wav,,,,,1,31,66,20,,,,,,,,,,,,,,,left,0.368097782135,,,,,Participant16,23,60.0986670067,Male,trial,2017_May_29_1247,
,,0.36,"[0, 0]",/sounds/legit/equal.wav,,,,,1,32,67,2,,,,,,,,,,,,,,,right,0.368652820587,,,,,Participant16,23,60.0986670067,Male,trial,2017_May_29_1247,
,,0.23,"[-2.25, 0]",/sounds/legit/left35.wav,,,,,1,33,68,21,,,,,,,,,,,,,,,left,0.434779167175,,,,,Participant16,23,60.0986670067,Male,trial,2017_May_29_1247,
,,0.62,"[4.5, 0]",/sounds/legit/right70.wav,,,,,1,34,69,14,,,,,,,,,,,,,,,right,0.434558153152,,,,,Participant16,23,60.0986670067,Male,trial,2017_May_29_1247,
,,0.62,"[-4.5, 0]",/sounds/legit/left70.wav,,,,,2,0,70,29,,,,,,,,,,,,,,,left,0.768610954285,,,,,Participant16,23,60.0986670067,Male,trial,2017_May_29_1247,
,,0.49,"[4.5, 0]",/sounds/legit/right70.wav,,,,,2,1,71,13,,,,,,,,,,,,,,,right,0.318083047867,,,,,Participant16,23,60.0986670067,Male,trial,2017_May_29_1247,
,,0.1,"[6.75, 0]",/sounds/legit/right100.wav,,,,,2,2,72,15,,,,,,,,,,,,,,,right,0.452885866165,,,,,Participant16,23,60.0986670067,Male,trial,2017_May_29_1247,
,,0.49,"[-2.25, 0]",/sounds/legit/left35.wav,,,,,2,3,73,23,,,,,,,,,,,,,,,left,0.235342979431,,,,,Participant16,23,60.0986670067,Male,trial,2017_May_29_1247,
,,0.1,"[-2.25, 0]",/sounds/legit/left35.wav,,,,,2,4,74,20,,,,,,,,,,,,,,,left,0.886161088943,,,,,Participant16,23,60.0986670067,Male,trial,2017_May_29_1247,
,,0.23,"[-6.75, 0]",/sounds/legit/left100.wav,,,,,2,5,75,31,,,,,,,,,,,,,,,left,0.35142993927,,,,,Participant16,23,60.0986670067,Male,trial,2017_May_29_1247,
,,0.36,"[-4.5, 0]",/sounds/legit/left70.wav,,,,,2,6,76,27,,,,,,,,,,,,,,,left,0.451596975327,,,,,Participant16,23,60.0986670067,Male,trial,2017_May_29_1247,
,,0.62,"[-2.25, 0]",/sounds/legit/left35.wav,,,,,2,7,77,24,,,,,,,,,,,,,,,left,1.3860578537,,,,,Participant16,23,60.0986670067,Male,trial,2017_May_29_1247,
,,0.1,"[-6.75, 0]",/sounds/legit/left100.wav,,,,,2,8,78,30,,,,,,,,,,,,,,,left,1.05275988579,,,,,Participant16,23,60.0986670067,Male,trial,2017_May_29_1247,
,,0.1,"[2.25, 0]",/sounds/legit/right35.wav,,,,,2,9,79,5,,,,,,,,,,,,,,,left,15.2258520126,,,,,Participant16,23,60.0986670067,Male,trial,2017_May_29_1247,
,,0.23,"[6.75, 0]",/sounds/legit/right100.wav,,,,,2,10,80,16,,,,,,,,,,,,,,,right,0.335298061371,,,,,Participant16,23,60.0986670067,Male,trial,2017_May_29_1247,
,,0.62,"[4.5, 0]",/sounds/legit/right70.wav,,,,,2,11,81,14,,,,,,,,,,,,,,,right,1.05130195618,,,,,Participant16,23,60.0986670067,Male,trial,2017_May_29_1247,
,,0.49,"[-4.5, 0]",/sounds/legit/left70.wav,,,,,2,12,82,28,,,,,,,,,,,,,,,left,1.05170607567,,,,,Participant16,23,60.0986670067,Male,trial,2017_May_29_1247,
,,0.23,"[-2.25, 0]",/sounds/legit/left35.wav,,,,,2,13,83,21,,,,,,,,,,,,,,,left,0.00151181221008,,,,,Participant16,23,60.0986670067,Male,trial,2017_May_29_1247,
,,0.36,"[4.5, 0]",/sounds/legit/right70.wav,,,,,2,14,84,12,,,,,,,,,,,,,,,right,0.435214996338,,,,,Participant16,23,60.0986670067,Male,trial,2017_May_29_1247,
,,0.49,"[0, 0]",/sounds/legit/equal.wav,,,,,2,15,85,3,,,,,,,,,,,,,,,right,0.552806854248,,,,,Participant16,23,60.0986670067,Male,trial,2017_May_29_1247,
,,0.36,"[0, 0]",/sounds/legit/equal.wav,,,,,2,16,86,2,,,,,,,,,,,,,,,left,0.451902866364,,,,,Participant16,23,60.0986670067,Male,trial,2017_May_29_1247,
,,0.49,"[6.75, 0]",/sounds/legit/right100.wav,,,,,2,17,87,18,,,,,,,,,,,,,,,right,0.00189208984375,,,,,Participant16,23,60.0986670067,Male,trial,2017_May_29_1247,
,,0.1,"[0, 0]",/sounds/legit/equal.wav,,,,,2,18,88,0,,,,,,,,,,,,,,,right,0.135295152664,,,,,Participant16,23,60.0986670067,Male,trial,2017_May_29_1247,
,,0.36,"[-2.25, 0]",/sounds/legit/left35.wav,,,,,2,19,89,22,,,,,,,,,,,,,,,left,0.251237154007,,,,,Participant16,23,60.0986670067,Male,trial,2017_May_29_1247,
,,0.62,"[0, 0]",/sounds/legit/equal.wav,,,,,2,20,90,4,,,,,,,,,,,,,,,right,0.167956113815,,,,,Participant16,23,60.0986670067,Male,trial,2017_May_29_1247,
,,0.1,"[4.5, 0]",/sounds/legit/right70.wav,,,,,2,21,91,10,,,,,,,,,,,,,,,right,1.71950292587,,,,,Participant16,23,60.0986670067,Male,trial,2017_May_29_1247,
,,0.23,"[2.25, 0]",/sounds/legit/right35.wav,,,,,2,22,92,6,,,,,,,,,,,,,,,right,0.284640073776,,,,,Participant16,23,60.0986670067,Male,trial,2017_May_29_1247,
,,0.1,"[-4.5, 0]",/sounds/legit/left70.wav,,,,,2,23,93,25,,,,,,,,,,,,,,,left,0.185782909393,,,,,Participant16,23,60.0986670067,Male,trial,2017_May_29_1247,
,,0.36,"[2.25, 0]",/sounds/legit/right35.wav,,,,,2,24,94,7,,,,,,,,,,,,,,,right,0.285267114639,,,,,Participant16,23,60.0986670067,Male,trial,2017_May_29_1247,
,,0.62,"[-6.75, 0]",/sounds/legit/left100.wav,,,,,2,25,95,34,,,,,,,,,,,,,,,left,0.368411064148,,,,,Participant16,23,60.0986670067,Male,trial,2017_May_29_1247,
,,0.23,"[-4.5, 0]",/sounds/legit/left70.wav,,,,,2,26,96,26,,,,,,,,,,,,,,,left,0.402060031891,,,,,Participant16,23,60.0986670067,Male,trial,2017_May_29_1247,
,,0.49,"[-6.75, 0]",/sounds/legit/left100.wav,,,,,2,27,97,33,,,,,,,,,,,,,,,left,0.835922002792,,,,,Participant16,23,60.0986670067,Male,trial,2017_May_29_1247,
,,0.62,"[2.25, 0]",/sounds/legit/right35.wav,,,,,2,28,98,9,,,,,,,,,,,,,,,right,0.685618877411,,,,,Participant16,23,60.0986670067,Male,trial,2017_May_29_1247,
,,0.23,"[0, 0]",/sounds/legit/equal.wav,,,,,2,29,99,1,,,,,,,,,,,,,,,right,0.802155017853,,,,,Participant16,23,60.0986670067,Male,trial,2017_May_29_1247,
,,0.36,"[-6.75, 0]",/sounds/legit/left100.wav,,,,,2,30,100,32,,,,,,,,,,,,,,,left,0.500864982605,,,,,Participant16,23,60.0986670067,Male,trial,2017_May_29_1247,
,,0.62,"[6.75, 0]",/sounds/legit/right100.wav,,,,,2,31,101,19,,,,,,,,,,,,,,,right,0.418342113495,,,,,Participant16,23,60.0986670067,Male,trial,2017_May_29_1247,
,,0.23,"[4.5, 0]",/sounds/legit/right70.wav,,,,,2,32,102,11,,,,,,,,,,,,,,,right,0.318203926086,,,,,Participant16,23,60.0986670067,Male,trial,2017_May_29_1247,
,,0.49,"[2.25, 0]",/sounds/legit/right35.wav,,,,,2,33,103,8,,,,,,,,,,,,,,,right,3.90320801735,,,,,Participant16,23,60.0986670067,Male,trial,2017_May_29_1247,
,,0.36,"[6.75, 0]",/sounds/legit/right100.wav,,,,,2,34,104,17,,,,,,,,,,,,,,,right,0.0191478729248,,,,,Participant16,23,60.0986670067,Male,trial,2017_May_29_1247,
,,0.36,"[-2.25, 0]",/sounds/legit/left35.wav,,,,,3,0,105,22,,,,,,,,,,,,,,,left,0.11820602417,,,,,Participant16,23,60.0986670067,Male,trial,2017_May_29_1247,
,,0.49,"[4.5, 0]",/sounds/legit/right70.wav,,,,,3,1,106,13,,,,,,,,,,,,,,,right,0.202682971954,,,,,Participant16,23,60.0986670067,Male,trial,2017_May_29_1247,
,,0.49,"[-2.25, 0]",/sounds/legit/left35.wav,,,,,3,2,107,23,,,,,,,,,,,,,,,left,0.101673126221,,,,,Participant16,23,60.0986670067,Male,trial,2017_May_29_1247,
,,0.23,"[-4.5, 0]",/sounds/legit/left70.wav,,,,,3,3,108,26,,,,,,,,,,,,,,,left,0.118854045868,,,,,Participant16,23,60.0986670067,Male,trial,2017_May_29_1247,
,,0.23,"[-2.25, 0]",/sounds/legit/left35.wav,,,,,3,4,109,21,,,,,,,,,,,,,,,left,3.1201210022,,,,,Participant16,23,60.0986670067,Male,trial,2017_May_29_1247,
,,0.1,"[6.75, 0]",/sounds/legit/right100.wav,,,,,3,5,110,15,,,,,,,,,,,,,,,right,3.25285005569,,,,,Participant16,23,60.0986670067,Male,trial,2017_May_29_1247,
,,0.36,"[0, 0]",/sounds/legit/equal.wav,,,,,3,6,111,2,,,,,,,,,,,,,,,right,0.068174123764,,,,,Participant16,23,60.0986670067,Male,trial,2017_May_29_1247,
,,0.23,"[2.25, 0]",/sounds/legit/right35.wav,,,,,3,7,112,6,,,,,,,,,,,,,,,right,0.385703086853,,,,,Participant16,23,60.0986670067,Male,trial,2017_May_29_1247,
,,0.36,"[2.25, 0]",/sounds/legit/right35.wav,,,,,3,8,113,7,,,,,,,,,,,,,,,right,0.00172114372253,,,,,Participant16,23,60.0986670067,Male,trial,2017_May_29_1247,
,,0.49,"[6.75, 0]",/sounds/legit/right100.wav,,,,,3,9,114,18,,,,,,,,,,,,,,,right,0.419083833694,,,,,Participant16,23,60.0986670067,Male,trial,2017_May_29_1247,
,,0.62,"[6.75, 0]",/sounds/legit/right100.wav,,,,,3,10,115,19,,,,,,,,,,,,,,,right,0.449527025223,,,,,Participant16,23,60.0986670067,Male,trial,2017_May_29_1247,
,,0.36,"[4.5, 0]",/sounds/legit/right70.wav,,,,,3,11,116,12,,,,,,,,,,,,,,,right,0.335414171219,,,,,Participant16,23,60.0986670067,Male,trial,2017_May_29_1247,
,,0.49,"[-4.5, 0]",/sounds/legit/left70.wav,,,,,3,12,117,28,,,,,,,,,,,,,,,left,0.101630926132,,,,,Participant16,23,60.0986670067,Male,trial,2017_May_29_1247,
,,0.49,"[-6.75, 0]",/sounds/legit/left100.wav,,,,,3,13,118,33,,,,,,,,,,,,,,,left,2.18593907356,,,,,Participant16,23,60.0986670067,Male,trial,2017_May_29_1247,
,,0.62,"[2.25, 0]",/sounds/legit/right35.wav,,,,,3,14,119,9,,,,,,,,,,,,,,,right,0.202231884003,,,,,Participant16,23,60.0986670067,Male,trial,2017_May_29_1247,
,,0.62,"[-2.25, 0]",/sounds/legit/left35.wav,,,,,3,15,120,24,,,,,,,,,,,,,,,left,0.36879491806,,,,,Participant16,23,60.0986670067,Male,trial,2017_May_29_1247,
,,0.36,"[-6.75, 0]",/sounds/legit/left100.wav,,,,,3,16,121,32,,,,,,,,,,,,,,,left,0.101732969284,,,,,Participant16,23,60.0986670067,Male,trial,2017_May_29_1247,
,,0.1,"[0, 0]",/sounds/legit/equal.wav,,,,,3,17,122,0,,,,,,,,,,,,,,,right,0.601177930832,,,,,Participant16,23,60.0986670067,Male,trial,2017_May_29_1247,
,,0.36,"[-4.5, 0]",/sounds/legit/left70.wav,,,,,3,18,123,27,,,,,,,,,,,,,,,left,0.567898988724,,,,,Participant16,23,60.0986670067,Male,trial,2017_May_29_1247,
,,0.23,"[6.75, 0]",/sounds/legit/right100.wav,,,,,3,19,124,16,,,,,,,,,,,,,,,right,0.318692922592,,,,,Participant16,23,60.0986670067,Male,trial,2017_May_29_1247,
,,0.1,"[4.5, 0]",/sounds/legit/right70.wav,,,,,3,20,125,10,,,,,,,,,,,,,,,right,0.267122983932,,,,,Participant16,23,60.0986670067,Male,trial,2017_May_29_1247,
,,0.23,"[0, 0]",/sounds/legit/equal.wav,,,,,3,21,126,1,,,,,,,,,,,,,,,right,0.283004999161,,,,,Participant16,23,60.0986670067,Male,trial,2017_May_29_1247,
,,0.1,"[-2.25, 0]",/sounds/legit/left35.wav,,,,,3,22,127,20,,,,,,,,,,,,,,,left,0.251389980316,,,,,Participant16,23,60.0986670067,Male,trial,2017_May_29_1247,
,,0.49,"[2.25, 0]",/sounds/legit/right35.wav,,,,,3,23,128,8,,,,,,,,,,,,,,,right,0.00165581703186,,,,,Participant16,23,60.0986670067,Male,trial,2017_May_29_1247,
,,0.1,"[2.25, 0]",/sounds/legit/right35.wav,,,,,3,24,129,5,,,,,,,,,,,,,,,right,0.184391975403,,,,,Participant16,23,60.0986670067,Male,trial,2017_May_29_1247,
,,0.62,"[0, 0]",/sounds/legit/equal.wav,,,,,3,25,130,4,,,,,,,,,,,,,,,left,0.319198131561,,,,,Participant16,23,60.0986670067,Male,trial,2017_May_29_1247,
,,0.62,"[-6.75, 0]",/sounds/legit/left100.wav,,,,,3,26,131,34,,,,,,,,,,,,,,,left,0.267436981201,,,,,Participant16,23,60.0986670067,Male,trial,2017_May_29_1247,
,,0.1,"[-4.5, 0]",/sounds/legit/left70.wav,,,,,3,27,132,25,,,,,,,,,,,,,,,left,0.0348467826843,,,,,Participant16,23,60.0986670067,Male,trial,2017_May_29_1247,
,,0.23,"[-6.75, 0]",/sounds/legit/left100.wav,,,,,3,28,133,31,,,,,,,,,,,,,,,left,0.0353717803955,,,,,Participant16,23,60.0986670067,Male,trial,2017_May_29_1247,
,,0.23,"[4.5, 0]",/sounds/legit/right70.wav,,,,,3,29,134,11,,,,,,,,,,,,,,,right,0.00167298316956,,,,,Participant16,23,60.0986670067,Male,trial,2017_May_29_1247,
,,0.1,"[-6.75, 0]",/sounds/legit/left100.wav,,,,,3,30,135,30,,,,,,,,,,,,,,,left,2.43542313576,,,,,Participant16,23,60.0986670067,Male,trial,2017_May_29_1247,
,,0.62,"[4.5, 0]",/sounds/legit/right70.wav,,,,,3,31,136,14,,,,,,,,,,,,,,,right,5.27119803429,,,,,Participant16,23,60.0986670067,Male,trial,2017_May_29_1247,
,,0.62,"[-4.5, 0]",/sounds/legit/left70.wav,,,,,3,32,137,29,,,,,,,,,,,,,,,left,0.018040895462,,,,,Participant16,23,60.0986670067,Male,trial,2017_May_29_1247,
,,0.49,"[0, 0]",/sounds/legit/equal.wav,,,,,3,33,138,3,,,,,,,,,,,,,,,right,3.68738698959,,,,,Participant16,23,60.0986670067,Male,trial,2017_May_29_1247,
,,0.36,"[6.75, 0]",/sounds/legit/right100.wav,,,,,3,34,139,17,,,,,,,,,,,,,,,right,1.51897287369,,,,,Participant16,23,60.0986670067,Male,trial,2017_May_29_1247,
,,0.1,"[6.75, 0]",/sounds/legit/right100.wav,,,,,4,0,140,15,,,,,,,,,,,,,,,right,0.301765918732,,,,,Participant16,23,60.0986670067,Male,trial,2017_May_29_1247,
,,0.49,"[-6.75, 0]",/sounds/legit/left100.wav,,,,,4,1,141,33,,,,,,,,,,,,,,,left,0.151489973068,,,,,Participant16,23,60.0986670067,Male,trial,2017_May_29_1247,
,,0.62,"[-4.5, 0]",/sounds/legit/left70.wav,,,,,4,2,142,29,,,,,,,,,,,,,,,left,0.185685873032,,,,,Participant16,23,60.0986670067,Male,trial,2017_May_29_1247,
,,0.62,"[-2.25, 0]",/sounds/legit/left35.wav,,,,,4,3,143,24,,,,,,,,,,,,,,,left,0.0680530071259,,,,,Participant16,23,60.0986670067,Male,trial,2017_May_29_1247,
,,0.23,"[6.75, 0]",/sounds/legit/right100.wav,,,,,4,4,144,16,,,,,,,,,,,,,,,left,3.55428886414,,,,,Participant16,23,60.0986670067,Male,trial,2017_May_29_1247,
,,0.1,"[-6.75, 0]",/sounds/legit/left100.wav,,,,,4,5,145,30,,,,,,,,,,,,,,,left,0.0853061676025,,,,,Participant16,23,60.0986670067,Male,trial,2017_May_29_1247,
,,0.23,"[4.5, 0]",/sounds/legit/right70.wav,,,,,4,6,146,11,,,,,,,,,,,,,,,right,0.0351490974426,,,,,Participant16,23,60.0986670067,Male,trial,2017_May_29_1247,
,,0.23,"[-4.5, 0]",/sounds/legit/left70.wav,,,,,4,7,147,26,,,,,,,,,,,,,,,left,0.100389957428,,,,,Participant16,23,60.0986670067,Male,trial,2017_May_29_1247,
,,0.1,"[4.5, 0]",/sounds/legit/right70.wav,,,,,4,8,148,10,,,,,,,,,,,,,,,right,0.283694028854,,,,,Participant16,23,60.0986670067,Male,trial,2017_May_29_1247,
,,0.62,"[2.25, 0]",/sounds/legit/right35.wav,,,,,4,9,149,9,,,,,,,,,,,,,,,right,0.0350642204285,,,,,Participant16,23,60.0986670067,Male,trial,2017_May_29_1247,
,,0.36,"[-2.25, 0]",/sounds/legit/left35.wav,,,,,4,10,150,22,,,,,,,,,,,,,,,left,0.234153985977,,,,,Participant16,23,60.0986670067,Male,trial,2017_May_29_1247,
,,0.62,"[4.5, 0]",/sounds/legit/right70.wav,,,,,4,11,151,14,,,,,,,,,,,,,,,right,0.234376907349,,,,,Participant16,23,60.0986670067,Male,trial,2017_May_29_1247,
,,0.49,"[6.75, 0]",/sounds/legit/right100.wav,,,,,4,12,152,18,,,,,,,,,,,,,,,right,0.134958982468,,,,,Participant16,23,60.0986670067,Male,trial,2017_May_29_1247,
,,0.1,"[-4.5, 0]",/sounds/legit/left70.wav,,,,,4,13,153,25,,,,,,,,,,,,,,,left,0.0186669826508,,,,,Participant16,23,60.0986670067,Male,trial,2017_May_29_1247,
,,0.23,"[0, 0]",/sounds/legit/equal.wav,,,,,4,14,154,1,,,,,,,,,,,,,,,left,0.251374006271,,,,,Participant16,23,60.0986670067,Male,trial,2017_May_29_1247,
,,0.1,"[-2.25, 0]",/sounds/legit/left35.wav,,,,,4,15,155,20,,,,,,,,,,,,,,,left,0.200412988663,,,,,Participant16,23,60.0986670067,Male,trial,2017_May_29_1247,
,,0.62,"[6.75, 0]",/sounds/legit/right100.wav,,,,,4,16,156,19,,,,,,,,,,,,,,,right,0.200628995895,,,,,Participant16,23,60.0986670067,Male,trial,2017_May_29_1247,
,,0.23,"[-2.25, 0]",/sounds/legit/left35.wav,,,,,4,17,157,21,,,,,,,,,,,,,,,left,0.13489985466,,,,,Participant16,23,60.0986670067,Male,trial,2017_May_29_1247,
,,0.1,"[0, 0]",/sounds/legit/equal.wav,,,,,4,18,158,0,,,,,,,,,,,,,,,left,0.251947879791,,,,,Participant16,23,60.0986670067,Male,trial,2017_May_29_1247,
,,0.36,"[-6.75, 0]",/sounds/legit/left100.wav,,,,,4,19,159,32,,,,,,,,,,,,,,,left,0.135433912277,,,,,Participant16,23,60.0986670067,Male,trial,2017_May_29_1247,
,,0.49,"[4.5, 0]",/sounds/legit/right70.wav,,,,,4,20,160,13,,,,,,,,,,,,,,,right,0.1848051548,,,,,Participant16,23,60.0986670067,Male,trial,2017_May_29_1247,
,,0.36,"[0, 0]",/sounds/legit/equal.wav,,,,,4,21,161,2,,,,,,,,,,,,,,,right,0.702054977417,,,,,Participant16,23,60.0986670067,Male,trial,2017_May_29_1247,
,,0.23,"[2.25, 0]",/sounds/legit/right35.wav,,,,,4,22,162,6,,,,,,,,,,,,,,,right,0.152251958847,,,,,Participant16,23,60.0986670067,Male,trial,2017_May_29_1247,
,,0.49,"[-4.5, 0]",/sounds/legit/left70.wav,,,,,4,23,163,28,,,,,,,,,,,,,,,left,0.0695018768311,,,,,Participant16,23,60.0986670067,Male,trial,2017_May_29_1247,
,,0.49,"[0, 0]",/sounds/legit/equal.wav,,,,,4,24,164,3,,,,,,,,,,,,,,,right,0.0510799884796,,,,,Participant16,23,60.0986670067,Male,trial,2017_May_29_1247,
,,0.36,"[2.25, 0]",/sounds/legit/right35.wav,,,,,4,25,165,7,,,,,,,,,,,,,,,right,0.0192131996155,,,,,Participant16,23,60.0986670067,Male,trial,2017_May_29_1247,
,,0.36,"[-4.5, 0]",/sounds/legit/left70.wav,,,,,4,26,166,27,,,,,,,,,,,,,,,left,2.77061700821,,,,,Participant16,23,60.0986670067,Male,trial,2017_May_29_1247,
,,0.62,"[0, 0]",/sounds/legit/equal.wav,,,,,4,27,167,4,,,,,,,,,,,,,,,right,0.38494181633,,,,,Participant16,23,60.0986670067,Male,trial,2017_May_29_1247,
,,0.36,"[4.5, 0]",/sounds/legit/right70.wav,,,,,4,28,168,12,,,,,,,,,,,,,,,right,2.1689260006,,,,,Participant16,23,60.0986670067,Male,trial,2017_May_29_1247,
,,0.1,"[2.25, 0]",/sounds/legit/right35.wav,,,,,4,29,169,5,,,,,,,,,,,,,,,right,0.318125009537,,,,,Participant16,23,60.0986670067,Male,trial,2017_May_29_1247,
,,0.49,"[2.25, 0]",/sounds/legit/right35.wav,,,,,4,30,170,8,,,,,,,,,,,,,,,right,0.301600217819,,,,,Participant16,23,60.0986670067,Male,trial,2017_May_29_1247,
,,0.23,"[-6.75, 0]",/sounds/legit/left100.wav,,,,,4,31,171,31,,,,,,,,,,,,,,,right,0.0842747688293,,,,,Participant16,23,60.0986670067,Male,trial,2017_May_29_1247,
,,0.62,"[-6.75, 0]",/sounds/legit/left100.wav,,,,,4,32,172,34,,,,,,,,,,,,,,,left,0.332681179047,,,,,Participant16,23,60.0986670067,Male,trial,2017_May_29_1247,
,,0.36,"[6.75, 0]",/sounds/legit/right100.wav,,,,,4,33,173,17,,,,,,,,,,,,,,,right,0.26913189888,,,,,Participant16,23,60.0986670067,Male,trial,2017_May_29_1247,
,,0.49,"[-2.25, 0]",/sounds/legit/left35.wav,,,,,4,34,174,23,,,,,,,,,,,,,,,left,0.284866094589,,,,,Participant16,23,60.0986670067,Male,trial,2017_May_29_1247,
,,0.49,"[2.25, 0]",/sounds/legit/right35.wav,,,,,5,0,175,8,,,,,,,,,,,,,,,right,0.284731864929,,,,,Participant16,23,60.0986670067,Male,trial,2017_May_29_1247,
,,0.1,"[-4.5, 0]",/sounds/legit/left70.wav,,,,,5,1,176,25,,,,,,,,,,,,,,,left,0.285599946976,,,,,Participant16,23,60.0986670067,Male,trial,2017_May_29_1247,
,,0.49,"[-6.75, 0]",/sounds/legit/left100.wav,,,,,5,2,177,33,,,,,,,,,,,,,,,left,0.052325963974,,,,,Participant16,23,60.0986670067,Male,trial,2017_May_29_1247,
,,0.36,"[2.25, 0]",/sounds/legit/right35.wav,,,,,5,3,178,7,,,,,,,,,,,,,,,right,0.0181310176849,,,,,Participant16,23,60.0986670067,Male,trial,2017_May_29_1247,
,,0.23,"[4.5, 0]",/sounds/legit/right70.wav,,,,,5,4,179,11,,,,,,,,,,,,,,,right,0.267122983932,,,,,Participant16,23,60.0986670067,Male,trial,2017_May_29_1247,
,,0.36,"[-4.5, 0]",/sounds/legit/left70.wav,,,,,5,5,180,27,,,,,,,,,,,,,,,left,0.218482017517,,,,,Participant16,23,60.0986670067,Male,trial,2017_May_29_1247,
,,0.62,"[2.25, 0]",/sounds/legit/right35.wav,,,,,5,6,181,9,,,,,,,,,,,,,,,right,0.168724060059,,,,,Participant16,23,60.0986670067,Male,trial,2017_May_29_1247,
,,0.36,"[-6.75, 0]",/sounds/legit/left100.wav,,,,,5,7,182,32,,,,,,,,,,,,,,,left,0.0362010002136,,,,,Participant16,23,60.0986670067,Male,trial,2017_May_29_1247,
,,0.36,"[0, 0]",/sounds/legit/equal.wav,,,,,5,8,183,2,,,,,,,,,,,,,,,right,0.0676929950714,,,,,Participant16,23,60.0986670067,Male,trial,2017_May_29_1247,
,,0.36,"[4.5, 0]",/sounds/legit/right70.wav,,,,,5,9,184,12,,,,,,,,,,,,,,,right,0.0190169811249,,,,,Participant16,23,60.0986670067,Male,trial,2017_May_29_1247,
,,0.62,"[-6.75, 0]",/sounds/legit/left100.wav,,,,,5,10,185,34,,,,,,,,,,,,,,,left,0.0850841999054,,,,,Participant16,23,60.0986670067,Male,trial,2017_May_29_1247,
,,0.1,"[6.75, 0]",/sounds/legit/right100.wav,,,,,5,11,186,15,,,,,,,,,,,,,,,right,2.1032910347,,,,,Participant16,23,60.0986670067,Male,trial,2017_May_29_1247,
,,0.62,"[-2.25, 0]",/sounds/legit/left35.wav,,,,,5,12,187,24,,,,,,,,,,,,,,,left,0.201219081879,,,,,Participant16,23,60.0986670067,Male,trial,2017_May_29_1247,
,,0.23,"[-4.5, 0]",/sounds/legit/left70.wav,,,,,5,13,188,26,,,,,,,,,,,,,,,left,0.0185871124268,,,,,Participant16,23,60.0986670067,Male,trial,2017_May_29_1247,
,,0.49,"[-2.25, 0]",/sounds/legit/left35.wav,,,,,5,14,189,23,,,,,,,,,,,,,,,left,0.151695966721,,,,,Participant16,23,60.0986670067,Male,trial,2017_May_29_1247,
,,0.23,"[2.25, 0]",/sounds/legit/right35.wav,,,,,5,15,190,6,,,,,,,,,,,,,,,right,0.135409116745,,,,,Participant16,23,60.0986670067,Male,trial,2017_May_29_1247,
,,0.1,"[-2.25, 0]",/sounds/legit/left35.wav,,,,,5,16,191,20,,,,,,,,,,,,,,,left,0.0690109729767,,,,,Participant16,23,60.0986670067,Male,trial,2017_May_29_1247,
,,0.49,"[4.5, 0]",/sounds/legit/right70.wav,,,,,5,17,192,13,,,,,,,,,,,,,,,right,0.219269037247,,,,,Participant16,23,60.0986670067,Male,trial,2017_May_29_1247,
,,0.23,"[6.75, 0]",/sounds/legit/right100.wav,,,,,5,18,193,16,,,,,,,,,,,,,,,right,0.201462030411,,,,,Participant16,23,60.0986670067,Male,trial,2017_May_29_1247,
,,0.62,"[-4.5, 0]",/sounds/legit/left70.wav,,,,,5,19,194,29,,,,,,,,,,,,,,,left,0.0500040054321,,,,,Participant16,23,60.0986670067,Male,trial,2017_May_29_1247,
,,0.62,"[4.5, 0]",/sounds/legit/right70.wav,,,,,5,20,195,14,,,,,,,,,,,,,,,right,0.0847380161285,,,,,Participant16,23,60.0986670067,Male,trial,2017_May_29_1247,
,,0.62,"[6.75, 0]",/sounds/legit/right100.wav,,,,,5,21,196,19,,,,,,,,,,,,,,,right,0.2178170681,,,,,Participant16,23,60.0986670067,Male,trial,2017_May_29_1247,
,,0.1,"[2.25, 0]",/sounds/legit/right35.wav,,,,,5,22,197,5,,,,,,,,,,,,,,,right,0.184434890747,,,,,Participant16,23,60.0986670067,Male,trial,2017_May_29_1247,
,,0.23,"[-2.25, 0]",/sounds/legit/left35.wav,,,,,5,23,198,21,,,,,,,,,,,,,,,left,0.0848319530487,,,,,Participant16,23,60.0986670067,Male,trial,2017_May_29_1247,
,,0.49,"[-4.5, 0]",/sounds/legit/left70.wav,,,,,5,24,199,28,,,,,,,,,,,,,,,left,0.134717941284,,,,,Participant16,23,60.0986670067,Male,trial,2017_May_29_1247,
,,0.36,"[-2.25, 0]",/sounds/legit/left35.wav,,,,,5,25,200,22,,,,,,,,,,,,,,,left,0.134745836258,,,,,Participant16,23,60.0986670067,Male,trial,2017_May_29_1247,
,,0.23,"[0, 0]",/sounds/legit/equal.wav,,,,,5,26,201,1,,,,,,,,,,,,,,,left,0.0680739879608,,,,,Participant16,23,60.0986670067,Male,trial,2017_May_29_1247,
,,0.62,"[0, 0]",/sounds/legit/equal.wav,,,,,5,27,202,4,,,,,,,,,,,,,,,left,0.202401161194,,,,,Participant16,23,60.0986670067,Male,trial,2017_May_29_1247,
,,0.23,"[-6.75, 0]",/sounds/legit/left100.wav,,,,,5,28,203,31,,,,,,,,,,,,,,,left,2.11847901344,,,,,Participant16,23,60.0986670067,Male,trial,2017_May_29_1247,
,,0.49,"[6.75, 0]",/sounds/legit/right100.wav,,,,,5,29,204,18,,,,,,,,,,,,,,,right,0.417729139328,,,,,Participant16,23,60.0986670067,Male,trial,2017_May_29_1247,
,,0.1,"[-6.75, 0]",/sounds/legit/left100.wav,,,,,5,30,205,30,,,,,,,,,,,,,,,left,0.767983913422,,,,,Participant16,23,60.0986670067,Male,trial,2017_May_29_1247,
,,0.36,"[6.75, 0]",/sounds/legit/right100.wav,,,,,5,31,206,17,,,,,,,,,,,,,,,right,0.485594034195,,,,,Participant16,23,60.0986670067,Male,trial,2017_May_29_1247,
,,0.1,"[0, 0]",/sounds/legit/equal.wav,,,,,5,32,207,0,,,,,,,,,,,,,,,right,0.901898145676,,,,,Participant16,23,60.0986670067,Male,trial,2017_May_29_1247,
,,0.49,"[0, 0]",/sounds/legit/equal.wav,,,,,5,33,208,3,,,,,,,,,,,,,,,left,0.401947021484,,,,,Participant16,23,60.0986670067,Male,trial,2017_May_29_1247,
,,0.1,"[4.5, 0]",/sounds/legit/right70.wav,,,,,5,34,209,10,,,,,,,,,,,,,,,right,0.618539094925,,,,,Participant16,23,60.0986670067,Male,trial,2017_May_29_1247,
,,0.62,"[-2.25, 0]",/sounds/legit/left35.wav,,,,,6,0,210,24,,,,,,,,,,,,,,,left,0.400876998901,,,,,Participant16,23,60.0986670067,Male,trial,2017_May_29_1247,
,,0.49,"[6.75, 0]",/sounds/legit/right100.wav,,,,,6,1,211,18,,,,,,,,,,,,,,,right,0.0182840824127,,,,,Participant16,23,60.0986670067,Male,trial,2017_May_29_1247,
,,0.23,"[-6.75, 0]",/sounds/legit/left100.wav,,,,,6,2,212,31,,,,,,,,,,,,,,,left,0.251271009445,,,,,Participant16,23,60.0986670067,Male,trial,2017_May_29_1247,
,,0.23,"[6.75, 0]",/sounds/legit/right100.wav,,,,,6,3,213,16,,,,,,,,,,,,,,,right,0.234501838684,,,,,Participant16,23,60.0986670067,Male,trial,2017_May_29_1247,
,,0.62,"[-4.5, 0]",/sounds/legit/left70.wav,,,,,6,4,214,29,,,,,,,,,,,,,,,left,0.318343877792,,,,,Participant16,23,60.0986670067,Male,trial,2017_May_29_1247,
,,0.1,"[2.25, 0]",/sounds/legit/right35.wav,,,,,6,5,215,5,,,,,,,,,,,,,,,right,1.71837997437,,,,,Participant16,23,60.0986670067,Male,trial,2017_May_29_1247,
,,0.49,"[-2.25, 0]",/sounds/legit/left35.wav,,,,,6,6,216,23,,,,,,,,,,,,,,,left,0.133553028107,,,,,Participant16,23,60.0986670067,Male,trial,2017_May_29_1247,
,,0.36,"[2.25, 0]",/sounds/legit/right35.wav,,,,,6,7,217,7,,,,,,,,,,,,,,,right,0.152400016785,,,,,Participant16,23,60.0986670067,Male,trial,2017_May_29_1247,
,,0.1,"[6.75, 0]",/sounds/legit/right100.wav,,,,,6,8,218,15,,,,,,,,,,,,,,,right,0.235434770584,,,,,Participant16,23,60.0986670067,Male,trial,2017_May_29_1247,
,,0.62,"[2.25, 0]",/sounds/legit/right35.wav,,,,,6,9,219,9,,,,,,,,,,,,,,,right,0.118093967438,,,,,Participant16,23,60.0986670067,Male,trial,2017_May_29_1247,
,,0.23,"[-4.5, 0]",/sounds/legit/left70.wav,,,,,6,10,220,26,,,,,,,,,,,,,,,left,0.169055938721,,,,,Participant16,23,60.0986670067,Male,trial,2017_May_29_1247,
,,0.62,"[-6.75, 0]",/sounds/legit/left100.wav,,,,,6,11,221,34,,,,,,,,,,,,,,,left,0.168551921844,,,,,Participant16,23,60.0986670067,Male,trial,2017_May_29_1247,
,,0.1,"[-6.75, 0]",/sounds/legit/left100.wav,,,,,6,12,222,30,,,,,,,,,,,,,,,left,0.217324972153,,,,,Participant16,23,60.0986670067,Male,trial,2017_May_29_1247,
,,0.36,"[0, 0]",/sounds/legit/equal.wav,,,,,6,13,223,2,,,,,,,,,,,,,,,right,0.468367099762,,,,,Participant16,23,60.0986670067,Male,trial,2017_May_29_1247,
,,0.49,"[-4.5, 0]",/sounds/legit/left70.wav,,,,,6,14,224,28,,,,,,,,,,,,,,,left,0.0016040802002,,,,,Participant16,23,60.0986670067,Male,trial,2017_May_29_1247,
,,0.36,"[-4.5, 0]",/sounds/legit/left70.wav,,,,,6,15,225,27,,,,,,,,,,,,,,,left,0.0690190792084,,,,,Participant16,23,60.0986670067,Male,trial,2017_May_29_1247,
,,0.23,"[2.25, 0]",/sounds/legit/right35.wav,,,,,6,16,226,6,,,,,,,,,,,,,,,right,0.201952934265,,,,,Participant16,23,60.0986670067,Male,trial,2017_May_29_1247,
,,0.23,"[-2.25, 0]",/sounds/legit/left35.wav,,,,,6,17,227,21,,,,,,,,,,,,,,,left,0.102609157562,,,,,Participant16,23,60.0986670067,Male,trial,2017_May_29_1247,
,,0.1,"[0, 0]",/sounds/legit/equal.wav,,,,,6,18,228,0,,,,,,,,,,,,,,,right,0.00160694122314,,,,,Participant16,23,60.0986670067,Male,trial,2017_May_29_1247,
,,0.23,"[4.5, 0]",/sounds/legit/right70.wav,,,,,6,19,229,11,,,,,,,,,,,,,,,right,0.0188939571381,,,,,Participant16,23,60.0986670067,Male,trial,2017_May_29_1247,
,,0.1,"[4.5, 0]",/sounds/legit/right70.wav,,,,,6,20,230,10,,,,,,,,,,,,,,,right,0.068078994751,,,,,Participant16,23,60.0986670067,Male,trial,2017_May_29_1247,
,,0.23,"[0, 0]",/sounds/legit/equal.wav,,,,,6,21,231,1,,,,,,,,,,,,,,,right,0.26939702034,,,,,Participant16,23,60.0986670067,Male,trial,2017_May_29_1247,
,,0.62,"[6.75, 0]",/sounds/legit/right100.wav,,,,,6,22,232,19,,,,,,,,,,,,,,,right,2.13613986969,,,,,Participant16,23,60.0986670067,Male,trial,2017_May_29_1247,
,,0.36,"[-2.25, 0]",/sounds/legit/left35.wav,,,,,6,23,233,22,,,,,,,,,,,,,,,left,0.15144610405,,,,,Participant16,23,60.0986670067,Male,trial,2017_May_29_1247,
,,0.62,"[4.5, 0]",/sounds/legit/right70.wav,,,,,6,24,234,14,,,,,,,,,,,,,,,right,0.401002168655,,,,,Participant16,23,60.0986670067,Male,trial,2017_May_29_1247,
,,0.36,"[-6.75, 0]",/sounds/legit/left100.wav,,,,,6,25,235,32,,,,,,,,,,,,,,,right,12.2572619915,,,,,Participant16,23,60.0986670067,Male,trial,2017_May_29_1247,
,,0.1,"[-4.5, 0]",/sounds/legit/left70.wav,,,,,6,26,236,25,,,,,,,,,,,,,,,left,0.185894966125,,,,,Participant16,23,60.0986670067,Male,trial,2017_May_29_1247,
,,0.49,"[-6.75, 0]",/sounds/legit/left100.wav,,,,,6,27,237,33,,,,,,,,,,,,,,,left,0.0862379074097,,,,,Participant16,23,60.0986670067,Male,trial,2017_May_29_1247,
,,0.62,"[0, 0]",/sounds/legit/equal.wav,,,,,6,28,238,4,,,,,,,,,,,,,,,right,0.368530988693,,,,,Participant16,23,60.0986670067,Male,trial,2017_May_29_1247,
,,0.49,"[0, 0]",/sounds/legit/equal.wav,,,,,6,29,239,3,,,,,,,,,,,,,,,right,0.134186029434,,,,,Participant16,23,60.0986670067,Male,trial,2017_May_29_1247,
,,0.1,"[-2.25, 0]",/sounds/legit/left35.wav,,,,,6,30,240,20,,,,,,,,,,,,,,,left,2.10254406929,,,,,Participant16,23,60.0986670067,Male,trial,2017_May_29_1247,
,,0.36,"[4.5, 0]",/sounds/legit/right70.wav,,,,,6,31,241,12,,,,,,,,,,,,,,,right,0.0351779460907,,,,,Participant16,23,60.0986670067,Male,trial,2017_May_29_1247,
,,0.49,"[4.5, 0]",/sounds/legit/right70.wav,,,,,6,32,242,13,,,,,,,,,,,,,,,right,0.0347938537598,,,,,Participant16,23,60.0986670067,Male,trial,2017_May_29_1247,
,,0.36,"[6.75, 0]",/sounds/legit/right100.wav,,,,,6,33,243,17,,,,,,,,,,,,,,,right,1.58632397652,,,,,Participant16,23,60.0986670067,Male,trial,2017_May_29_1247,
,,0.49,"[2.25, 0]",/sounds/legit/right35.wav,,,,,6,34,244,8,,,,,,,,,,,,,,,right,0.0675640106201,,,,,Participant16,23,60.0986670067,Male,trial,2017_May_29_1247,
,,0.62,"[2.25, 0]",/sounds/legit/right35.wav,,,,,7,0,245,9,,,,,,,,,,,,,,,right,0.234797000885,,,,,Participant16,23,60.0986670067,Male,trial,2017_May_29_1247,
,,0.23,"[-4.5, 0]",/sounds/legit/left70.wav,,,,,7,1,246,26,,,,,,,,,,,,,,,left,0.151427984238,,,,,Participant16,23,60.0986670067,Male,trial,2017_May_29_1247,
,,0.36,"[-6.75, 0]",/sounds/legit/left100.wav,,,,,7,2,247,32,,,,,,,,,,,,,,,left,0.184430122375,,,,,Participant16,23,60.0986670067,Male,trial,2017_May_29_1247,
,,0.49,"[0, 0]",/sounds/legit/equal.wav,,,,,7,3,248,3,,,,,,,,,,,,,,,right,0.199507951736,,,,,Participant16,23,60.0986670067,Male,trial,2017_May_29_1247,
,,0.1,"[4.5, 0]",/sounds/legit/right70.wav,,,,,7,4,249,10,,,,,,,,,,,,,,,right,0.134387016296,,,,,Participant16,23,60.0986670067,Male,trial,2017_May_29_1247,
,,0.62,"[-2.25, 0]",/sounds/legit/left35.wav,,,,,7,5,250,24,,,,,,,,,,,,,,,left,0.184621095657,,,,,Participant16,23,60.0986670067,Male,trial,2017_May_29_1247,
,,0.49,"[-2.25, 0]",/sounds/legit/left35.wav,,,,,7,6,251,23,,,,,,,,,,,,,,,left,4.18591403961,,,,,Participant16,23,60.0986670067,Male,trial,2017_May_29_1247,
,,0.49,"[-6.75, 0]",/sounds/legit/left100.wav,,,,,7,7,252,33,,,,,,,,,,,,,,,left,0.202445030212,,,,,Participant16,23,60.0986670067,Male,trial,2017_May_29_1247,
,,0.49,"[-4.5, 0]",/sounds/legit/left70.wav,,,,,7,8,253,28,,,,,,,,,,,,,,,left,0.168131113052,,,,,Participant16,23,60.0986670067,Male,trial,2017_May_29_1247,
,,0.49,"[2.25, 0]",/sounds/legit/right35.wav,,,,,7,9,254,8,,,,,,,,,,,,,,,right,4.003677845,,,,,Participant16,23,60.0986670067,Male,trial,2017_May_29_1247,
,,0.1,"[-6.75, 0]",/sounds/legit/left100.wav,,,,,7,10,255,30,,,,,,,,,,,,,,,left,1.97003507614,,,,,Participant16,23,60.0986670067,Male,trial,2017_May_29_1247,
,,0.23,"[0, 0]",/sounds/legit/equal.wav,,,,,7,11,256,1,,,,,,,,,,,,,,,left,0.252431154251,,,,,Participant16,23,60.0986670067,Male,trial,2017_May_29_1247,
,,0.62,"[0, 0]",/sounds/legit/equal.wav,,,,,7,12,257,4,,,,,,,,,,,,,,,right,0.286135911942,,,,,Participant16,23,60.0986670067,Male,trial,2017_May_29_1247,
,,0.23,"[2.25, 0]",/sounds/legit/right35.wav,,,,,7,13,258,6,,,,,,,,,,,,,,,right,0.168444871902,,,,,Participant16,23,60.0986670067,Male,trial,2017_May_29_1247,
,,0.36,"[6.75, 0]",/sounds/legit/right100.wav,,,,,7,14,259,17,,,,,,,,,,,,,,,right,0.168388843536,,,,,Participant16,23,60.0986670067,Male,trial,2017_May_29_1247,
,,0.49,"[6.75, 0]",/sounds/legit/right100.wav,,,,,7,15,260,18,,,,,,,,,,,,,,,right,0.118755817413,,,,,Participant16,23,60.0986670067,Male,trial,2017_May_29_1247,
,,0.62,"[6.75, 0]",/sounds/legit/right100.wav,,,,,7,16,261,19,,,,,,,,,,,,,,,right,0.185590028763,,,,,Participant16,23,60.0986670067,Male,trial,2017_May_29_1247,
,,0.62,"[-6.75, 0]",/sounds/legit/left100.wav,,,,,7,17,262,34,,,,,,,,,,,,,,,left,0.218347787857,,,,,Participant16,23,60.0986670067,Male,trial,2017_May_29_1247,
,,0.36,"[-2.25, 0]",/sounds/legit/left35.wav,,,,,7,18,263,22,,,,,,,,,,,,,,,left,0.168142080307,,,,,Participant16,23,60.0986670067,Male,trial,2017_May_29_1247,
,,0.36,"[2.25, 0]",/sounds/legit/right35.wav,,,,,7,19,264,7,,,,,,,,,,,,,,,right,0.0190649032593,,,,,Participant16,23,60.0986670067,Male,trial,2017_May_29_1247,
,,0.1,"[-2.25, 0]",/sounds/legit/left35.wav,,,,,7,20,265,20,,,,,,,,,,,,,,,left,0.085529088974,,,,,Participant16,23,60.0986670067,Male,trial,2017_May_29_1247,
,,0.1,"[2.25, 0]",/sounds/legit/right35.wav,,,,,7,21,266,5,,,,,,,,,,,,,,,right,0.0521330833435,,,,,Participant16,23,60.0986670067,Male,trial,2017_May_29_1247,
,,0.36,"[4.5, 0]",/sounds/legit/right70.wav,,,,,7,22,267,12,,,,,,,,,,,,,,,right,1.35278892517,,,,,Participant16,23,60.0986670067,Male,trial,2017_May_29_1247,
,,0.62,"[-4.5, 0]",/sounds/legit/left70.wav,,,,,7,23,268,29,,,,,,,,,,,,,,,left,0.235177993774,,,,,Participant16,23,60.0986670067,Male,trial,2017_May_29_1247,
,,0.1,"[0, 0]",/sounds/legit/equal.wav,,,,,7,24,269,0,,,,,,,,,,,,,,,right,0.452930212021,,,,,Participant16,23,60.0986670067,Male,trial,2017_May_29_1247,
,,0.36,"[-4.5, 0]",/sounds/legit/left70.wav,,,,,7,25,270,27,,,,,,,,,,,,,,,left,1.23450016975,,,,,Participant16,23,60.0986670067,Male,trial,2017_May_29_1247,
,,0.1,"[-4.5, 0]",/sounds/legit/left70.wav,,,,,7,26,271,25,,,,,,,,,,,,,,,left,1.41910290718,,,,,Participant16,23,60.0986670067,Male,trial,2017_May_29_1247,
,,0.1,"[6.75, 0]",/sounds/legit/right100.wav,,,,,7,27,272,15,,,,,,,,,,,,,,,right,0.518728017807,,,,,Participant16,23,60.0986670067,Male,trial,2017_May_29_1247,
,,0.23,"[6.75, 0]",/sounds/legit/right100.wav,,,,,7,28,273,16,,,,,,,,,,,,,,,right,5.78755092621,,,,,Participant16,23,60.0986670067,Male,trial,2017_May_29_1247,
,,0.23,"[4.5, 0]",/sounds/legit/right70.wav,,,,,7,29,274,11,,,,,,,,,,,,,,,right,0.217792034149,,,,,Participant16,23,60.0986670067,Male,trial,2017_May_29_1247,
,,0.62,"[4.5, 0]",/sounds/legit/right70.wav,,,,,7,30,275,14,,,,,,,,,,,,,,,right,2.4195959568,,,,,Participant16,23,60.0986670067,Male,trial,2017_May_29_1247,
,,0.49,"[4.5, 0]",/sounds/legit/right70.wav,,,,,7,31,276,13,,,,,,,,,,,,,,,right,0.00165104866028,,,,,Participant16,23,60.0986670067,Male,trial,2017_May_29_1247,
,,0.36,"[0, 0]",/sounds/legit/equal.wav,,,,,7,32,277,2,,,,,,,,,,,,,,,right,0.317754030228,,,,,Participant16,23,60.0986670067,Male,trial,2017_May_29_1247,
,,0.23,"[-6.75, 0]",/sounds/legit/left100.wav,,,,,7,33,278,31,,,,,,,,,,,,,,,left,0.451436042786,,,,,Participant16,23,60.0986670067,Male,trial,2017_May_29_1247,
,,0.23,"[-2.25, 0]",/sounds/legit/left35.wav,,,,,7,34,279,21,,,,,,,,,,,,,,,left,0.318386077881,,,,,Participant16,23,60.0986670067,Male,trial,2017_May_29_1247,
,,0.49,"[-2.25, 0]",/sounds/legit/left35.wav,,,,,8,0,280,23,,,,,,,,,,,,,,,left,0.152276992798,,,,,Participant16,23,60.0986670067,Male,trial,2017_May_29_1247,
,,0.62,"[6.75, 0]",/sounds/legit/right100.wav,,,,,8,1,281,19,,,,,,,,,,,,,,,right,0.352643013,,,,,Participant16,23,60.0986670067,Male,trial,2017_May_29_1247,
,,0.36,"[-2.25, 0]",/sounds/legit/left35.wav,,,,,8,2,282,22,,,,,,,,,,,,,,,left,0.134640932083,,,,,Participant16,23,60.0986670067,Male,trial,2017_May_29_1247,
,,0.62,"[-6.75, 0]",/sounds/legit/left100.wav,,,,,8,3,283,34,,,,,,,,,,,,,,,left,0.1676030159,,,,,Participant16,23,60.0986670067,Male,trial,2017_May_29_1247,
,,0.62,"[-4.5, 0]",/sounds/legit/left70.wav,,,,,8,4,284,29,,,,,,,,,,,,,,,left,0.20183801651,,,,,Participant16,23,60.0986670067,Male,trial,2017_May_29_1247,
,,0.23,"[2.25, 0]",/sounds/legit/right35.wav,,,,,8,5,285,6,,,,,,,,,,,,,,,right,0.118566036224,,,,,Participant16,23,60.0986670067,Male,trial,2017_May_29_1247,
,,0.1,"[0, 0]",/sounds/legit/equal.wav,,,,,8,6,286,0,,,,,,,,,,,,,,,right,0.185480117798,,,,,Participant16,23,60.0986670067,Male,trial,2017_May_29_1247,
,,0.36,"[6.75, 0]",/sounds/legit/right100.wav,,,,,8,7,287,17,,,,,,,,,,,,,,,right,0.101020097733,,,,,Participant16,23,60.0986670067,Male,trial,2017_May_29_1247,
,,0.23,"[0, 0]",/sounds/legit/equal.wav,,,,,8,8,288,1,,,,,,,,,,,,,,,right,0.0182301998138,,,,,Participant16,23,60.0986670067,Male,trial,2017_May_29_1247,
,,0.23,"[-4.5, 0]",/sounds/legit/left70.wav,,,,,8,9,289,26,,,,,,,,,,,,,,,left,0.218560934067,,,,,Participant16,23,60.0986670067,Male,trial,2017_May_29_1247,
,,0.36,"[-6.75, 0]",/sounds/legit/left100.wav,,,,,8,10,290,32,,,,,,,,,,,,,,,left,0.151196956635,,,,,Participant16,23,60.0986670067,Male,trial,2017_May_29_1247,
,,0.1,"[6.75, 0]",/sounds/legit/right100.wav,,,,,8,11,291,15,,,,,,,,,,,,,,,right,0.083487033844,,,,,Participant16,23,60.0986670067,Male,trial,2017_May_29_1247,
,,0.1,"[-6.75, 0]",/sounds/legit/left100.wav,,,,,8,12,292,30,,,,,,,,,,,,,,,left,0.168126106262,,,,,Participant16,23,60.0986670067,Male,trial,2017_May_29_1247,
,,0.36,"[2.25, 0]",/sounds/legit/right35.wav,,,,,8,13,293,7,,,,,,,,,,,,,,,right,0.233552932739,,,,,Participant16,23,60.0986670067,Male,trial,2017_May_29_1247,
,,0.62,"[2.25, 0]",/sounds/legit/right35.wav,,,,,8,14,294,9,,,,,,,,,,,,,,,right,0.00167894363403,,,,,Participant16,23,60.0986670067,Male,trial,2017_May_29_1247,
,,0.36,"[0, 0]",/sounds/legit/equal.wav,,,,,8,15,295,2,,,,,,,,,,,,,,,right,1.25331401825,,,,,Participant16,23,60.0986670067,Male,trial,2017_May_29_1247,
,,0.49,"[-6.75, 0]",/sounds/legit/left100.wav,,,,,8,16,296,33,,,,,,,,,,,,,,,left,0.283561944962,,,,,Participant16,23,60.0986670067,Male,trial,2017_May_29_1247,
,,0.23,"[-6.75, 0]",/sounds/legit/left100.wav,,,,,8,17,297,31,,,,,,,,,,,,,,,left,0.852214097977,,,,,Participant16,23,60.0986670067,Male,trial,2017_May_29_1247,
,,0.62,"[-2.25, 0]",/sounds/legit/left35.wav,,,,,8,18,298,24,,,,,,,,,,,,,,,left,0.018434047699,,,,,Participant16,23,60.0986670067,Male,trial,2017_May_29_1247,
,,0.1,"[-4.5, 0]",/sounds/legit/left70.wav,,,,,8,19,299,25,,,,,,,,,,,,,,,left,0.168348073959,,,,,Participant16,23,60.0986670067,Male,trial,2017_May_29_1247,
,,0.36,"[-4.5, 0]",/sounds/legit/left70.wav,,,,,8,20,300,27,,,,,,,,,,,,,,,left,2.83704304695,,,,,Participant16,23,60.0986670067,Male,trial,2017_May_29_1247,
,,0.49,"[6.75, 0]",/sounds/legit/right100.wav,,,,,8,21,301,18,,,,,,,,,,,,,,,right,0.268446922302,,,,,Participant16,23,60.0986670067,Male,trial,2017_May_29_1247,
,,0.23,"[-2.25, 0]",/sounds/legit/left35.wav,,,,,8,22,302,21,,,,,,,,,,,,,,,left,0.151121854782,,,,,Participant16,23,60.0986670067,Male,trial,2017_May_29_1247,
,,0.49,"[0, 0]",/sounds/legit/equal.wav,,,,,8,23,303,3,,,,,,,,,,,,,,,right,2.61983585358,,,,,Participant16,23,60.0986670067,Male,trial,2017_May_29_1247,
,,0.36,"[4.5, 0]",/sounds/legit/right70.wav,,,,,8,24,304,12,,,,,,,,,,,,,,,right,0.217606067657,,,,,Participant16,23,60.0986670067,Male,trial,2017_May_29_1247,
,,0.49,"[-4.5, 0]",/sounds/legit/left70.wav,,,,,8,25,305,28,,,,,,,,,,,,,,,left,0.0352590084076,,,,,Participant16,23,60.0986670067,Male,trial,2017_May_29_1247,
,,0.1,"[2.25, 0]",/sounds/legit/right35.wav,,,,,8,26,306,5,,,,,,,,,,,,,,,right,2.05319714546,,,,,Participant16,23,60.0986670067,Male,trial,2017_May_29_1247,
,,0.49,"[2.25, 0]",/sounds/legit/right35.wav,,,,,8,27,307,8,,,,,,,,,,,,,,,right,0.235072135925,,,,,Participant16,23,60.0986670067,Male,trial,2017_May_29_1247,
,,0.1,"[4.5, 0]",/sounds/legit/right70.wav,,,,,8,28,308,10,,,,,,,,,,,,,,,right,0.0518910884857,,,,,Participant16,23,60.0986670067,Male,trial,2017_May_29_1247,
,,0.23,"[4.5, 0]",/sounds/legit/right70.wav,,,,,8,29,309,11,,,,,,,,,,,,,,,right,0.852093935013,,,,,Participant16,23,60.0986670067,Male,trial,2017_May_29_1247,
,,0.1,"[-2.25, 0]",/sounds/legit/left35.wav,,,,,8,30,310,20,,,,,,,,,,,,,,,left,0.0192098617554,,,,,Participant16,23,60.0986670067,Male,trial,2017_May_29_1247,
,,0.23,"[6.75, 0]",/sounds/legit/right100.wav,,,,,8,31,311,16,,,,,,,,,,,,,,,right,1.75344514847,,,,,Participant16,23,60.0986670067,Male,trial,2017_May_29_1247,
,,0.62,"[0, 0]",/sounds/legit/equal.wav,,,,,8,32,312,4,,,,,,,,,,,,,,,right,0.451143026352,,,,,Participant16,23,60.0986670067,Male,trial,2017_May_29_1247,
,,0.62,"[4.5, 0]",/sounds/legit/right70.wav,,,,,8,33,313,14,,,,,,,,,,,,,,,left,0.150758981705,,,,,Participant16,23,60.0986670067,Male,trial,2017_May_29_1247,
,,0.49,"[4.5, 0]",/sounds/legit/right70.wav,,,,,8,34,314,13,,,,,,,,,,,,,,,right,0.135593891144,,,,,Participant16,23,60.0986670067,Male,trial,2017_May_29_1247,
,,0.1,"[-6.75, 0]",/sounds/legit/left100.wav,,,,,9,0,315,30,,,,,,,,,,,,,,,left,2.06911420822,,,,,Participant16,23,60.0986670067,Male,trial,2017_May_29_1247,
,,0.1,"[0, 0]",/sounds/legit/equal.wav,,,,,9,1,316,0,,,,,,,,,,,,,,,right,0.285443782806,,,,,Participant16,23,60.0986670067,Male,trial,2017_May_29_1247,
,,0.49,"[-6.75, 0]",/sounds/legit/left100.wav,,,,,9,2,317,33,,,,,,,,,,,,,,,left,0.283735990524,,,,,Participant16,23,60.0986670067,Male,trial,2017_May_29_1247,
,,0.23,"[0, 0]",/sounds/legit/equal.wav,,,,,9,3,318,1,,,,,,,,,,,,,,,right,0.402283906937,,,,,Participant16,23,60.0986670067,Male,trial,2017_May_29_1247,
,,0.62,"[-2.25, 0]",/sounds/legit/left35.wav,,,,,9,4,319,24,,,,,,,,,,,,,,,left,1.96898984909,,,,,Participant16,23,60.0986670067,Male,trial,2017_May_29_1247,
,,0.23,"[6.75, 0]",/sounds/legit/right100.wav,,,,,9,5,320,16,,,,,,,,,,,,,,,right,0.26890707016,,,,,Participant16,23,60.0986670067,Male,trial,2017_May_29_1247,
,,0.23,"[4.5, 0]",/sounds/legit/right70.wav,,,,,9,6,321,11,,,,,,,,,,,,,,,right,0.00177383422852,,,,,Participant16,23,60.0986670067,Male,trial,2017_May_29_1247,
,,0.23,"[-2.25, 0]",/sounds/legit/left35.wav,,,,,9,7,322,21,,,,,,,,,,,,,,,left,0.218412160873,,,,,Participant16,23,60.0986670067,Male,trial,2017_May_29_1247,
,,0.36,"[4.5, 0]",/sounds/legit/right70.wav,,,,,9,8,323,12,,,,,,,,,,,,,,,right,0.267727136612,,,,,Participant16,23,60.0986670067,Male,trial,2017_May_29_1247,
,,0.36,"[0, 0]",/sounds/legit/equal.wav,,,,,9,9,324,2,,,,,,,,,,,,,,,right,1.81920289993,,,,,Participant16,23,60.0986670067,Male,trial,2017_May_29_1247,
,,0.62,"[6.75, 0]",/sounds/legit/right100.wav,,,,,9,10,325,19,,,,,,,,,,,,,,,right,1.75309419632,,,,,Participant16,23,60.0986670067,Male,trial,2017_May_29_1247,
,,0.62,"[-6.75, 0]",/sounds/legit/left100.wav,,,,,9,11,326,34,,,,,,,,,,,,,,,left,0.00166201591492,,,,,Participant16,23,60.0986670067,Male,trial,2017_May_29_1247,
,,0.36,"[2.25, 0]",/sounds/legit/right35.wav,,,,,9,12,327,7,,,,,,,,,,,,,,,right,0.0517380237579,,,,,Participant16,23,60.0986670067,Male,trial,2017_May_29_1247,
,,0.62,"[0, 0]",/sounds/legit/equal.wav,,,,,9,13,328,4,,,,,,,,,,,,,,,right,0.801582098007,,,,,Participant16,23,60.0986670067,Male,trial,2017_May_29_1247,
,,0.36,"[-2.25, 0]",/sounds/legit/left35.wav,,,,,9,14,329,22,,,,,,,,,,,,,,,left,0.234071016312,,,,,Participant16,23,60.0986670067,Male,trial,2017_May_29_1247,
,,0.36,"[-6.75, 0]",/sounds/legit/left100.wav,,,,,9,15,330,32,,,,,,,,,,,,,,,left,0.301206111908,,,,,Participant16,23,60.0986670067,Male,trial,2017_May_29_1247,
,,0.49,"[0, 0]",/sounds/legit/equal.wav,,,,,9,16,331,3,,,,,,,,,,,,,,,right,0.202008008957,,,,,Participant16,23,60.0986670067,Male,trial,2017_May_29_1247,
,,0.62,"[2.25, 0]",/sounds/legit/right35.wav,,,,,9,17,332,9,,,,,,,,,,,,,,,right,0.501329183578,,,,,Participant16,23,60.0986670067,Male,trial,2017_May_29_1247,
,,0.49,"[-2.25, 0]",/sounds/legit/left35.wav,,,,,9,18,333,23,,,,,,,,,,,,,,,left,0.201761960983,,,,,Participant16,23,60.0986670067,Male,trial,2017_May_29_1247,
,,0.1,"[2.25, 0]",/sounds/legit/right35.wav,,,,,9,19,334,5,,,,,,,,,,,,,,,right,0.185202121735,,,,,Participant16,23,60.0986670067,Male,trial,2017_May_29_1247,
,,0.1,"[4.5, 0]",/sounds/legit/right70.wav,,,,,9,20,335,10,,,,,,,,,,,,,,,right,0.268081903458,,,,,Participant16,23,60.0986670067,Male,trial,2017_May_29_1247,
,,0.49,"[-4.5, 0]",/sounds/legit/left70.wav,,,,,9,21,336,28,,,,,,,,,,,,,,,left,0.0182991027832,,,,,Participant16,23,60.0986670067,Male,trial,2017_May_29_1247,
,,0.62,"[-4.5, 0]",/sounds/legit/left70.wav,,,,,9,22,337,29,,,,,,,,,,,,,,,left,0.0358309745789,,,,,Participant16,23,60.0986670067,Male,trial,2017_May_29_1247,
,,0.36,"[6.75, 0]",/sounds/legit/right100.wav,,,,,9,23,338,17,,,,,,,,,,,,,,,right,0.366623878479,,,,,Participant16,23,60.0986670067,Male,trial,2017_May_29_1247,
,,0.1,"[-2.25, 0]",/sounds/legit/left35.wav,,,,,9,24,339,20,,,,,,,,,,,,,,,left,0.119118928909,,,,,Participant16,23,60.0986670067,Male,trial,2017_May_29_1247,
,,0.49,"[6.75, 0]",/sounds/legit/right100.wav,,,,,9,25,340,18,,,,,,,,,,,,,,,right,0.185977935791,,,,,Participant16,23,60.0986670067,Male,trial,2017_May_29_1247,
,,0.1,"[-4.5, 0]",/sounds/legit/left70.wav,,,,,9,26,341,25,,,,,,,,,,,,,,,left,0.185276985168,,,,,Participant16,23,60.0986670067,Male,trial,2017_May_29_1247,
,,0.49,"[4.5, 0]",/sounds/legit/right70.wav,,,,,9,27,342,13,,,,,,,,,,,,,,,right,0.185169935226,,,,,Participant16,23,60.0986670067,Male,trial,2017_May_29_1247,
,,0.23,"[-4.5, 0]",/sounds/legit/left70.wav,,,,,9,28,343,26,,,,,,,,,,,,,,,left,1.4350528717,,,,,Participant16,23,60.0986670067,Male,trial,2017_May_29_1247,
,,0.23,"[-6.75, 0]",/sounds/legit/left100.wav,,,,,9,29,344,31,,,,,,,,,,,,,,,left,0.235623121262,,,,,Participant16,23,60.0986670067,Male,trial,2017_May_29_1247,
,,0.62,"[4.5, 0]",/sounds/legit/right70.wav,,,,,9,30,345,14,,,,,,,,,,,,,,,right,0.25187587738,,,,,Participant16,23,60.0986670067,Male,trial,2017_May_29_1247,
,,0.49,"[2.25, 0]",/sounds/legit/right35.wav,,,,,9,31,346,8,,,,,,,,,,,,,,,right,0.218082904816,,,,,Participant16,23,60.0986670067,Male,trial,2017_May_29_1247,
,,0.1,"[6.75, 0]",/sounds/legit/right100.wav,,,,,9,32,347,15,,,,,,,,,,,,,,,right,0.16855597496,,,,,Participant16,23,60.0986670067,Male,trial,2017_May_29_1247,
,,0.36,"[-4.5, 0]",/sounds/legit/left70.wav,,,,,9,33,348,27,,,,,,,,,,,,,,,left,0.234898090363,,,,,Participant16,23,60.0986670067,Male,trial,2017_May_29_1247,
,,0.23,"[2.25, 0]",/sounds/legit/right35.wav,,,,,9,34,349,6,,,,,,,,,,,,,,,right,0.216715812683,,,,,Participant16,23,60.0986670067,Male,trial,2017_May_29_1247,
,,,,,,,,,,,,,,,,,,,,,,,,,,,,,space,17.1103620529,,,Participant16,23,60.0986670067,Male,trial,2017_May_29_1247,
,,0.49,"[6.75, 0]",/sounds/legit/right100.wav,,,,,,,,,0,0,0,18,,,,,,,,,,,,,,,right,0.234863042831,Participant16,23,60.0986670067,Male,trial,2017_May_29_1247,
,,0.1,"[0, 0]",/sounds/legit/equal.wav,,,,,,,,,0,1,1,0,,,,,,,,,,,,,,,right,0.735084056854,Participant16,23,60.0986670067,Male,trial,2017_May_29_1247,
,,0.36,"[4.5, 0]",/sounds/legit/right70.wav,,,,,,,,,0,2,2,12,,,,,,,,,,,,,,,right,0.352077960968,Participant16,23,60.0986670067,Male,trial,2017_May_29_1247,
,,0.62,"[-6.75, 0]",/sounds/legit/left100.wav,,,,,,,,,0,3,3,34,,,,,,,,,,,,,,,left,0.168894052505,Participant16,23,60.0986670067,Male,trial,2017_May_29_1247,
,,0.36,"[-4.5, 0]",/sounds/legit/left70.wav,,,,,,,,,0,4,4,27,,,,,,,,,,,,,,,left,0.401813983917,Participant16,23,60.0986670067,Male,trial,2017_May_29_1247,
,,0.49,"[2.25, 0]",/sounds/legit/right35.wav,,,,,,,,,0,5,5,8,,,,,,,,,,,,,,,right,0.418853998184,Participant16,23,60.0986670067,Male,trial,2017_May_29_1247,
,,0.36,"[-6.75, 0]",/sounds/legit/left100.wav,,,,,,,,,0,6,6,32,,,,,,,,,,,,,,,left,0.200525999069,Participant16,23,60.0986670067,Male,trial,2017_May_29_1247,
,,0.1,"[-2.25, 0]",/sounds/legit/left35.wav,,,,,,,,,0,7,7,20,,,,,,,,,,,,,,,left,0.285034894943,Participant16,23,60.0986670067,Male,trial,2017_May_29_1247,
,,0.49,"[6.75, 0]",/sounds/legit/right100.wav,,,,,,,,,0,8,8,18,,,,,,,,,,,,,,,right,0.318572998047,Participant16,23,60.0986670067,Male,trial,2017_May_29_1247,
,,0.36,"[-4.5, 0]",/sounds/legit/left70.wav,,,,,,,,,0,9,9,27,,,,,,,,,,,,,,,left,0.118822097778,Participant16,23,60.0986670067,Male,trial,2017_May_29_1247,
,,0.62,"[0, 0]",/sounds/legit/equal.wav,,,,,,,,,0,10,10,4,,,,,,,,,,,,,,,right,0.685277938843,Participant16,23,60.0986670067,Male,trial,2017_May_29_1247,
,,0.49,"[-2.25, 0]",/sounds/legit/left35.wav,,,,,,,,,0,11,11,23,,,,,,,,,,,,,,,left,0.235667943954,Participant16,23,60.0986670067,Male,trial,2017_May_29_1247,
,,0.62,"[-2.25, 0]",/sounds/legit/left35.wav,,,,,,,,,0,12,12,24,,,,,,,,,,,,,,,left,0.135265111923,Participant16,23,60.0986670067,Male,trial,2017_May_29_1247,
,,0.62,"[6.75, 0]",/sounds/legit/right100.wav,,,,,,,,,0,13,13,19,,,,,,,,,,,,,,,right,0.184564113617,Participant16,23,60.0986670067,Male,trial,2017_May_29_1247,
,,0.36,"[-6.75, 0]",/sounds/legit/left100.wav,,,,,,,,,0,14,14,32,,,,,,,,,,,,,,,left,0.0343859195709,Participant16,23,60.0986670067,Male,trial,2017_May_29_1247,
,,0.1,"[4.5, 0]",/sounds/legit/right70.wav,,,,,,,,,0,15,15,10,,,,,,,,,,,,,,,right,0.451357126236,Participant16,23,60.0986670067,Male,trial,2017_May_29_1247,
,,0.1,"[2.25, 0]",/sounds/legit/right35.wav,,,,,,,,,0,16,16,5,,,,,,,,,,,,,,,right,0.250933170319,Participant16,23,60.0986670067,Male,trial,2017_May_29_1247,
,,0.23,"[0, 0]",/sounds/legit/equal.wav,,,,,,,,,0,17,17,1,,,,,,,,,,,,,,,right,0.217891931534,Participant16,23,60.0986670067,Male,trial,2017_May_29_1247,
,,0.1,"[-4.5, 0]",/sounds/legit/left70.wav,,,,,,,,,0,18,18,25,,,,,,,,,,,,,,,left,0.184674024582,Participant16,23,60.0986670067,Male,trial,2017_May_29_1247,
,,0.23,"[0, 0]",/sounds/legit/equal.wav,,,,,,,,,0,19,19,1,,,,,,,,,,,,,,,right,0.218654870987,Participant16,23,60.0986670067,Male,trial,2017_May_29_1247,
,,0.62,"[2.25, 0]",/sounds/legit/right35.wav,,,,,,,,,0,20,20,9,,,,,,,,,,,,,,,right,0.168869972229,Participant16,23,60.0986670067,Male,trial,2017_May_29_1247,
,,0.23,"[4.5, 0]",/sounds/legit/right70.wav,,,,,,,,,0,21,21,11,,,,,,,,,,,,,,,right,0.201568126678,Participant16,23,60.0986670067,Male,trial,2017_May_29_1247,
,,0.36,"[4.5, 0]",/sounds/legit/right70.wav,,,,,,,,,0,22,22,12,,,,,,,,,,,,,,,right,0.215975046158,Participant16,23,60.0986670067,Male,trial,2017_May_29_1247,
,,0.36,"[0, 0]",/sounds/legit/equal.wav,,,,,,,,,0,23,23,2,,,,,,,,,,,,,,,right,0.101509094238,Participant16,23,60.0986670067,Male,trial,2017_May_29_1247,
,,0.62,"[-6.75, 0]",/sounds/legit/left100.wav,,,,,,,,,0,24,24,34,,,,,,,,,,,,,,,left,0.10135602951,Participant16,23,60.0986670067,Male,trial,2017_May_29_1247,
,,0.49,"[-2.25, 0]",/sounds/legit/left35.wav,,,,,,,,,0,25,25,23,,,,,,,,,,,,,,,left,0.418375015259,Participant16,23,60.0986670067,Male,trial,2017_May_29_1247,
,,0.23,"[4.5, 0]",/sounds/legit/right70.wav,,,,,,,,,0,26,26,11,,,,,,,,,,,,,,,right,0.303197145462,Participant16,23,60.0986670067,Male,trial,2017_May_29_1247,
,,0.23,"[-6.75, 0]",/sounds/legit/left100.wav,,,,,,,,,0,27,27,31,,,,,,,,,,,,,,,left,0.183129072189,Participant16,23,60.0986670067,Male,trial,2017_May_29_1247,
,,0.23,"[-6.75, 0]",/sounds/legit/left100.wav,,,,,,,,,0,28,28,31,,,,,,,,,,,,,,,left,0.167962789536,Participant16,23,60.0986670067,Male,trial,2017_May_29_1247,
,,0.1,"[0, 0]",/sounds/legit/equal.wav,,,,,,,,,0,29,29,0,,,,,,,,,,,,,,,right,0.235059976578,Participant16,23,60.0986670067,Male,trial,2017_May_29_1247,
,,0.36,"[2.25, 0]",/sounds/legit/right35.wav,,,,,,,,,0,30,30,7,,,,,,,,,,,,,,,right,0.268279790878,Participant16,23,60.0986670067,Male,trial,2017_May_29_1247,
,,0.36,"[4.5, 0]",/sounds/legit/right70.wav,,,,,,,,,0,31,31,12,,,,,,,,,,,,,,,right,0.151574134827,Participant16,23,60.0986670067,Male,trial,2017_May_29_1247,
,,0.62,"[4.5, 0]",/sounds/legit/right70.wav,,,,,,,,,0,32,32,14,,,,,,,,,,,,,,,right,0.201887130737,Participant16,23,60.0986670067,Male,trial,2017_May_29_1247,
,,0.23,"[-2.25, 0]",/sounds/legit/left35.wav,,,,,,,,,0,33,33,21,,,,,,,,,,,,,,,left,0.21746301651,Participant16,23,60.0986670067,Male,trial,2017_May_29_1247,
,,0.1,"[-4.5, 0]",/sounds/legit/left70.wav,,,,,,,,,0,34,34,25,,,,,,,,,,,,,,,left,0.201303958893,Participant16,23,60.0986670067,Male,trial,2017_May_29_1247,
,,0.23,"[-4.5, 0]",/sounds/legit/left70.wav,,,,,,,,,1,0,35,26,,,,,,,,,,,,,,,left,0.184935092926,Participant16,23,60.0986670067,Male,trial,2017_May_29_1247,
,,0.1,"[4.5, 0]",/sounds/legit/right70.wav,,,,,,,,,1,1,36,10,,,,,,,,,,,,,,,right,0.166755914688,Participant16,23,60.0986670067,Male,trial,2017_May_29_1247,
,,0.49,"[4.5, 0]",/sounds/legit/right70.wav,,,,,,,,,1,2,37,13,,,,,,,,,,,,,,,right,0.20180606842,Participant16,23,60.0986670067,Male,trial,2017_May_29_1247,
,,0.23,"[-4.5, 0]",/sounds/legit/left70.wav,,,,,,,,,1,3,38,26,,,,,,,,,,,,,,,left,0.168207168579,Participant16,23,60.0986670067,Male,trial,2017_May_29_1247,
,,0.62,"[6.75, 0]",/sounds/legit/right100.wav,,,,,,,,,1,4,39,19,,,,,,,,,,,,,,,right,0.151226043701,Participant16,23,60.0986670067,Male,trial,2017_May_29_1247,
,,0.1,"[-2.25, 0]",/sounds/legit/left35.wav,,,,,,,,,1,5,40,20,,,,,,,,,,,,,,,left,0.185002088547,Participant16,23,60.0986670067,Male,trial,2017_May_29_1247,
,,0.62,"[-4.5, 0]",/sounds/legit/left70.wav,,,,,,,,,1,6,41,29,,,,,,,,,,,,,,,left,0.185345888138,Participant16,23,60.0986670067,Male,trial,2017_May_29_1247,
,,0.62,"[0, 0]",/sounds/legit/equal.wav,,,,,,,,,1,7,42,4,,,,,,,,,,,,,,,left,0.568613052368,Participant16,23,60.0986670067,Male,trial,2017_May_29_1247,
,,0.62,"[4.5, 0]",/sounds/legit/right70.wav,,,,,,,,,1,8,43,14,,,,,,,,,,,,,,,right,0.118027925491,Participant16,23,60.0986670067,Male,trial,2017_May_29_1247,
,,0.23,"[-2.25, 0]",/sounds/legit/left35.wav,,,,,,,,,1,9,44,21,,,,,,,,,,,,,,,left,0.0349969863892,Participant16,23,60.0986670067,Male,trial,2017_May_29_1247,
,,0.36,"[-4.5, 0]",/sounds/legit/left70.wav,,,,,,,,,1,10,45,27,,,,,,,,,,,,,,,left,0.333973884583,Participant16,23,60.0986670067,Male,trial,2017_May_29_1247,
,,0.36,"[-2.25, 0]",/sounds/legit/left35.wav,,,,,,,,,1,11,46,22,,,,,,,,,,,,,,,left,0.16844701767,Participant16,23,60.0986670067,Male,trial,2017_May_29_1247,
,,0.1,"[-6.75, 0]",/sounds/legit/left100.wav,,,,,,,,,1,12,47,30,,,,,,,,,,,,,,,left,0.150991916656,Participant16,23,60.0986670067,Male,trial,2017_May_29_1247,
,,0.62,"[-2.25, 0]",/sounds/legit/left35.wav,,,,,,,,,1,13,48,24,,,,,,,,,,,,,,,left,0.168098926544,Participant16,23,60.0986670067,Male,trial,2017_May_29_1247,
,,0.49,"[-6.75, 0]",/sounds/legit/left100.wav,,,,,,,,,1,14,49,33,,,,,,,,,,,,,,,left,0.350922822952,Participant16,23,60.0986670067,Male,trial,2017_May_29_1247,
,,0.23,"[4.5, 0]",/sounds/legit/right70.wav,,,,,,,,,1,15,50,11,,,,,,,,,,,,,,,right,0.151661157608,Participant16,23,60.0986670067,Male,trial,2017_May_29_1247,
,,0.36,"[2.25, 0]",/sounds/legit/right35.wav,,,,,,,,,1,16,51,7,,,,,,,,,,,,,,,right,0.20228099823,Participant16,23,60.0986670067,Male,trial,2017_May_29_1247,
,,0.23,"[-2.25, 0]",/sounds/legit/left35.wav,,,,,,,,,1,17,52,21,,,,,,,,,,,,,,,right,1.01823806763,Participant16,23,60.0986670067,Male,trial,2017_May_29_1247,
,,0.23,"[-4.5, 0]",/sounds/legit/left70.wav,,,,,,,,,1,18,53,26,,,,,,,,,,,,,,,left,0.184690952301,Participant16,23,60.0986670067,Male,trial,2017_May_29_1247,
,,0.1,"[0, 0]",/sounds/legit/equal.wav,,,,,,,,,1,19,54,0,,,,,,,,,,,,,,,right,0.0843529701233,Participant16,23,60.0986670067,Male,trial,2017_May_29_1247,
,,0.1,"[2.25, 0]",/sounds/legit/right35.wav,,,,,,,,,1,20,55,5,,,,,,,,,,,,,,,right,0.0524990558624,Participant16,23,60.0986670067,Male,trial,2017_May_29_1247,
,,0.1,"[4.5, 0]",/sounds/legit/right70.wav,,,,,,,,,1,21,56,10,,,,,,,,,,,,,,,right,0.0188128948212,Participant16,23,60.0986670067,Male,trial,2017_May_29_1247,
,,0.62,"[-2.25, 0]",/sounds/legit/left35.wav,,,,,,,,,1,22,57,24,,,,,,,,,,,,,,,left,0.268135070801,Participant16,23,60.0986670067,Male,trial,2017_May_29_1247,
,,0.62,"[-6.75, 0]",/sounds/legit/left100.wav,,,,,,,,,1,23,58,34,,,,,,,,,,,,,,,left,0.35176897049,Participant16,23,60.0986670067,Male,trial,2017_May_29_1247,
,,0.62,"[4.5, 0]",/sounds/legit/right70.wav,,,,,,,,,1,24,59,14,,,,,,,,,,,,,,,right,0.118628978729,Participant16,23,60.0986670067,Male,trial,2017_May_29_1247,
,,0.36,"[4.5, 0]",/sounds/legit/right70.wav,,,,,,,,,1,25,60,12,,,,,,,,,,,,,,,right,0.0181648731232,Participant16,23,60.0986670067,Male,trial,2017_May_29_1247,
,,0.1,"[0, 0]",/sounds/legit/equal.wav,,,,,,,,,1,26,61,0,,,,,,,,,,,,,,,right,0.035012960434,Participant16,23,60.0986670067,Male,trial,2017_May_29_1247,
,,0.36,"[-4.5, 0]",/sounds/legit/left70.wav,,,,,,,,,1,27,62,27,,,,,,,,,,,,,,,left,0.0687470436096,Participant16,23,60.0986670067,Male,trial,2017_May_29_1247,
,,0.49,"[-4.5, 0]",/sounds/legit/left70.wav,,,,,,,,,1,28,63,28,,,,,,,,,,,,,,,left,0.0688400268555,Participant16,23,60.0986670067,Male,trial,2017_May_29_1247,
,,0.62,"[6.75, 0]",/sounds/legit/right100.wav,,,,,,,,,1,29,64,19,,,,,,,,,,,,,,,right,0.301489114761,Participant16,23,60.0986670067,Male,trial,2017_May_29_1247,
,,0.49,"[4.5, 0]",/sounds/legit/right70.wav,,,,,,,,,1,30,65,13,,,,,,,,,,,,,,,right,0.150148868561,Participant16,23,60.0986670067,Male,trial,2017_May_29_1247,
,,0.23,"[6.75, 0]",/sounds/legit/right100.wav,,,,,,,,,1,31,66,16,,,,,,,,,,,,,,,right,0.0182659626007,Participant16,23,60.0986670067,Male,trial,2017_May_29_1247,
,,0.36,"[-2.25, 0]",/sounds/legit/left35.wav,,,,,,,,,1,32,67,22,,,,,,,,,,,,,,,left,1.28451395035,Participant16,23,60.0986670067,Male,trial,2017_May_29_1247,
,,0.62,"[-6.75, 0]",/sounds/legit/left100.wav,,,,,,,,,1,33,68,34,,,,,,,,,,,,,,,left,0.400864124298,Participant16,23,60.0986670067,Male,trial,2017_May_29_1247,
,,0.62,"[2.25, 0]",/sounds/legit/right35.wav,,,,,,,,,1,34,69,9,,,,,,,,,,,,,,,left,1.48602795601,Participant16,23,60.0986670067,Male,trial,2017_May_29_1247,
,,0.36,"[-2.25, 0]",/sounds/legit/left35.wav,,,,,,,,,2,0,70,22,,,,,,,,,,,,,,,left,0.200356960297,Participant16,23,60.0986670067,Male,trial,2017_May_29_1247,
,,0.49,"[-2.25, 0]",/sounds/legit/left35.wav,,,,,,,,,2,1,71,23,,,,,,,,,,,,,,,right,0.502435922623,Participant16,23,60.0986670067,Male,trial,2017_May_29_1247,
,,0.23,"[4.5, 0]",/sounds/legit/right70.wav,,,,,,,,,2,2,72,11,,,,,,,,,,,,,,,right,0.201660871506,Participant16,23,60.0986670067,Male,trial,2017_May_29_1247,
,,0.1,"[6.75, 0]",/sounds/legit/right100.wav,,,,,,,,,2,3,73,15,,,,,,,,,,,,,,,right,0.851898908615,Participant16,23,60.0986670067,Male,trial,2017_May_29_1247,
,,0.49,"[-6.75, 0]",/sounds/legit/left100.wav,,,,,,,,,2,4,74,33,,,,,,,,,,,,,,,left,0.469304084778,Participant16,23,60.0986670067,Male,trial,2017_May_29_1247,
,,0.23,"[0, 0]",/sounds/legit/equal.wav,,,,,,,,,2,5,75,1,,,,,,,,,,,,,,,right,0.219286203384,Participant16,23,60.0986670067,Male,trial,2017_May_29_1247,
,,0.1,"[-2.25, 0]",/sounds/legit/left35.wav,,,,,,,,,2,6,76,20,,,,,,,,,,,,,,,left,0.16809797287,Participant16,23,60.0986670067,Male,trial,2017_May_29_1247,
,,0.23,"[0, 0]",/sounds/legit/equal.wav,,,,,,,,,2,7,77,1,,,,,,,,,,,,,,,right,0.218988895416,Participant16,23,60.0986670067,Male,trial,2017_May_29_1247,
,,0.49,"[-2.25, 0]",/sounds/legit/left35.wav,,,,,,,,,2,8,78,23,,,,,,,,,,,,,,,left,0.134265184402,Participant16,23,60.0986670067,Male,trial,2017_May_29_1247,
,,0.36,"[0, 0]",/sounds/legit/equal.wav,,,,,,,,,2,9,79,2,,,,,,,,,,,,,,,right,0.0682229995728,Participant16,23,60.0986670067,Male,trial,2017_May_29_1247,
,,0.36,"[0, 0]",/sounds/legit/equal.wav,,,,,,,,,2,10,80,2,,,,,,,,,,,,,,,right,0.351438999176,Participant16,23,60.0986670067,Male,trial,2017_May_29_1247,
,,0.36,"[-4.5, 0]",/sounds/legit/left70.wav,,,,,,,,,2,11,81,27,,,,,,,,,,,,,,,left,0.368498802185,Participant16,23,60.0986670067,Male,trial,2017_May_29_1247,
,,0.62,"[-4.5, 0]",/sounds/legit/left70.wav,,,,,,,,,2,12,82,29,,,,,,,,,,,,,,,left,0.284460067749,Participant16,23,60.0986670067,Male,trial,2017_May_29_1247,
,,0.23,"[-6.75, 0]",/sounds/legit/left100.wav,,,,,,,,,2,13,83,31,,,,,,,,,,,,,,,left,0.183033943176,Participant16,23,60.0986670067,Male,trial,2017_May_29_1247,
,,0.36,"[0, 0]",/sounds/legit/equal.wav,,,,,,,,,2,14,84,2,,,,,,,,,,,,,,,right,0.285686969757,Participant16,23,60.0986670067,Male,trial,2017_May_29_1247,
,,0.36,"[0, 0]",/sounds/legit/equal.wav,,,,,,,,,2,15,85,2,,,,,,,,,,,,,,,right,0.234423875809,Participant16,23,60.0986670067,Male,trial,2017_May_29_1247,
,,0.23,"[-6.75, 0]",/sounds/legit/left100.wav,,,,,,,,,2,16,86,31,,,,,,,,,,,,,,,left,0.0855889320374,Participant16,23,60.0986670067,Male,trial,2017_May_29_1247,
,,0.49,"[4.5, 0]",/sounds/legit/right70.wav,,,,,,,,,2,17,87,13,,,,,,,,,,,,,,,right,0.101692914963,Participant16,23,60.0986670067,Male,trial,2017_May_29_1247,
,,0.36,"[-2.25, 0]",/sounds/legit/left35.wav,,,,,,,,,2,18,88,22,,,,,,,,,,,,,,,left,0.734711885452,Participant16,23,60.0986670067,Male,trial,2017_May_29_1247,
,,0.1,"[4.5, 0]",/sounds/legit/right70.wav,,,,,,,,,2,19,89,10,,,,,,,,,,,,,,,right,4.10289812088,Participant16,23,60.0986670067,Male,trial,2017_May_29_1247,
,,0.36,"[0, 0]",/sounds/legit/equal.wav,,,,,,,,,2,20,90,2,,,,,,,,,,,,,,,right,0.26951789856,Participant16,23,60.0986670067,Male,trial,2017_May_29_1247,
,,0.23,"[6.75, 0]",/sounds/legit/right100.wav,,,,,,,,,2,21,91,16,,,,,,,,,,,,,,,right,0.200935125351,Participant16,23,60.0986670067,Male,trial,2017_May_29_1247,
,,0.49,"[-2.25, 0]",/sounds/legit/left35.wav,,,,,,,,,2,22,92,23,,,,,,,,,,,,,,,right,0.351482868195,Participant16,23,60.0986670067,Male,trial,2017_May_29_1247,
,,0.49,"[-2.25, 0]",/sounds/legit/left35.wav,,,,,,,,,2,23,93,23,,,,,,,,,,,,,,,left,0.24991607666,Participant16,23,60.0986670067,Male,trial,2017_May_29_1247,
,,0.23,"[-4.5, 0]",/sounds/legit/left70.wav,,,,,,,,,2,24,94,26,,,,,,,,,,,,,,,right,0.802386045456,Participant16,23,60.0986670067,Male,trial,2017_May_29_1247,
,,0.36,"[-2.25, 0]",/sounds/legit/left35.wav,,,,,,,,,2,25,95,22,,,,,,,,,,,,,,,right,1.91967105865,Participant16,23,60.0986670067,Male,trial,2017_May_29_1247,
,,0.36,"[2.25, 0]",/sounds/legit/right35.wav,,,,,,,,,2,26,96,7,,,,,,,,,,,,,,,left,2.61785697937,Participant16,23,60.0986670067,Male,trial,2017_May_29_1247,
,,0.1,"[4.5, 0]",/sounds/legit/right70.wav,,,,,,,,,2,27,97,10,,,,,,,,,,,,,,,left,3.45344305038,Participant16,23,60.0986670067,Male,trial,2017_May_29_1247,
,,0.23,"[4.5, 0]",/sounds/legit/right70.wav,,,,,,,,,2,28,98,11,,,,,,,,,,,,,,,right,0.0857529640198,Participant16,23,60.0986670067,Male,trial,2017_May_29_1247,
,,0.62,"[0, 0]",/sounds/legit/equal.wav,,,,,,,,,2,29,99,4,,,,,,,,,,,,,,,right,0.235907077789,Participant16,23,60.0986670067,Male,trial,2017_May_29_1247,
,,0.62,"[2.25, 0]",/sounds/legit/right35.wav,,,,,,,,,2,30,100,9,,,,,,,,,,,,,,,right,0.152179002762,Participant16,23,60.0986670067,Male,trial,2017_May_29_1247,
,,0.49,"[-4.5, 0]",/sounds/legit/left70.wav,,,,,,,,,2,31,101,28,,,,,,,,,,,,,,,left,0.0850639343262,Participant16,23,60.0986670067,Male,trial,2017_May_29_1247,
,,0.23,"[-2.25, 0]",/sounds/legit/left35.wav,,,,,,,,,2,32,102,21,,,,,,,,,,,,,,,left,0.00159597396851,Participant16,23,60.0986670067,Male,trial,2017_May_29_1247,
,,0.23,"[-6.75, 0]",/sounds/legit/left100.wav,,,,,,,,,2,33,103,31,,,,,,,,,,,,,,,left,0.0682079792023,Participant16,23,60.0986670067,Male,trial,2017_May_29_1247,
,,0.62,"[2.25, 0]",/sounds/legit/right35.wav,,,,,,,,,2,34,104,9,,,,,,,,,,,,,,,right,0.835387945175,Participant16,23,60.0986670067,Male,trial,2017_May_29_1247,
,,0.23,"[-4.5, 0]",/sounds/legit/left70.wav,,,,,,,,,3,0,105,26,,,,,,,,,,,,,,,left,0.0518090724945,Participant16,23,60.0986670067,Male,trial,2017_May_29_1247,
,,0.1,"[6.75, 0]",/sounds/legit/right100.wav,,,,,,,,,3,1,106,15,,,,,,,,,,,,,,,right,0.0686268806458,Participant16,23,60.0986670067,Male,trial,2017_May_29_1247,
,,0.23,"[4.5, 0]",/sounds/legit/right70.wav,,,,,,,,,3,2,107,11,,,,,,,,,,,,,,,right,0.0525240898132,Participant16,23,60.0986670067,Male,trial,2017_May_29_1247,
,,0.36,"[-2.25, 0]",/sounds/legit/left35.wav,,,,,,,,,3,3,108,22,,,,,,,,,,,,,,,left,0.168669939041,Participant16,23,60.0986670067,Male,trial,2017_May_29_1247,
,,0.1,"[4.5, 0]",/sounds/legit/right70.wav,,,,,,,,,3,4,109,10,,,,,,,,,,,,,,,right,0.151672124863,Participant16,23,60.0986670067,Male,trial,2017_May_29_1247,
,,0.23,"[-2.25, 0]",/sounds/legit/left35.wav,,,,,,,,,3,5,110,21,,,,,,,,,,,,,,,left,0.134277820587,Participant16,23,60.0986670067,Male,trial,2017_May_29_1247,
,,0.36,"[-4.5, 0]",/sounds/legit/left70.wav,,,,,,,,,3,6,111,27,,,,,,,,,,,,,,,left,0.116824150085,Participant16,23,60.0986670067,Male,trial,2017_May_29_1247,
,,0.62,"[2.25, 0]",/sounds/legit/right35.wav,,,,,,,,,3,7,112,9,,,,,,,,,,,,,,,right,0.118604898453,Participant16,23,60.0986670067,Male,trial,2017_May_29_1247,
,,0.49,"[2.25, 0]",/sounds/legit/right35.wav,,,,,,,,,3,8,113,8,,,,,,,,,,,,,,,right,0.00157403945923,Participant16,23,60.0986670067,Male,trial,2017_May_29_1247,
,,0.36,"[6.75, 0]",/sounds/legit/right100.wav,,,,,,,,,3,9,114,17,,,,,,,,,,,,,,,right,0.136044979095,Participant16,23,60.0986670067,Male,trial,2017_May_29_1247,
,,0.36,"[4.5, 0]",/sounds/legit/right70.wav,,,,,,,,,3,10,115,12,,,,,,,,,,,,,,,right,0.284781932831,Participant16,23,60.0986670067,Male,trial,2017_May_29_1247,
,,0.23,"[-2.25, 0]",/sounds/legit/left35.wav,,,,,,,,,3,11,116,21,,,,,,,,,,,,,,,left,0.219283103943,Participant16,23,60.0986670067,Male,trial,2017_May_29_1247,
,,0.1,"[2.25, 0]",/sounds/legit/right35.wav,,,,,,,,,3,12,117,5,,,,,,,,,,,,,,,right,0.101572036743,Participant16,23,60.0986670067,Male,trial,2017_May_29_1247,
,,0.36,"[-2.25, 0]",/sounds/legit/left35.wav,,,,,,,,,3,13,118,22,,,,,,,,,,,,,,,left,0.217196941376,Participant16,23,60.0986670067,Male,trial,2017_May_29_1247,
,,0.62,"[6.75, 0]",/sounds/legit/right100.wav,,,,,,,,,3,14,119,19,,,,,,,,,,,,,,,right,0.117756128311,Participant16,23,60.0986670067,Male,trial,2017_May_29_1247,
,,0.49,"[0, 0]",/sounds/legit/equal.wav,,,,,,,,,3,15,120,3,,,,,,,,,,,,,,,right,0.201091051102,Participant16,23,60.0986670067,Male,trial,2017_May_29_1247,
,,0.62,"[0, 0]",/sounds/legit/equal.wav,,,,,,,,,3,16,121,4,,,,,,,,,,,,,,,right,0.885267972946,Participant16,23,60.0986670067,Male,trial,2017_May_29_1247,
,,0.36,"[2.25, 0]",/sounds/legit/right35.wav,,,,,,,,,3,17,122,7,,,,,,,,,,,,,,,right,0.134662866592,Participant16,23,60.0986670067,Male,trial,2017_May_29_1247,
,,0.23,"[0, 0]",/sounds/legit/equal.wav,,,,,,,,,3,18,123,1,,,,,,,,,,,,,,,right,0.102119922638,Participant16,23,60.0986670067,Male,trial,2017_May_29_1247,
,,0.1,"[-2.25, 0]",/sounds/legit/left35.wav,,,,,,,,,3,19,124,20,,,,,,,,,,,,,,,right,6.67243003845,Participant16,23,60.0986670067,Male,trial,2017_May_29_1247,
,,0.23,"[-2.25, 0]",/sounds/legit/left35.wav,,,,,,,,,3,20,125,21,,,,,,,,,,,,,,,left,0.202042102814,Participant16,23,60.0986670067,Male,trial,2017_May_29_1247,
,,0.49,"[-6.75, 0]",/sounds/legit/left100.wav,,,,,,,,,3,21,126,33,,,,,,,,,,,,,,,left,0.100980043411,Participant16,23,60.0986670067,Male,trial,2017_May_29_1247,
,,0.49,"[-2.25, 0]",/sounds/legit/left35.wav,,,,,,,,,3,22,127,23,,,,,,,,,,,,,,,left,0.26820397377,Participant16,23,60.0986670067,Male,trial,2017_May_29_1247,
,,0.62,"[2.25, 0]",/sounds/legit/right35.wav,,,,,,,,,3,23,128,9,,,,,,,,,,,,,,,right,0.0511989593506,Participant16,23,60.0986670067,Male,trial,2017_May_29_1247,
,,0.62,"[-2.25, 0]",/sounds/legit/left35.wav,,,,,,,,,3,24,129,24,,,,,,,,,,,,,,,left,0.0176389217377,Participant16,23,60.0986670067,Male,trial,2017_May_29_1247,
,,0.1,"[0, 0]",/sounds/legit/equal.wav,,,,,,,,,3,25,130,0,,,,,,,,,,,,,,,right,0.068696975708,Participant16,23,60.0986670067,Male,trial,2017_May_29_1247,
,,0.62,"[4.5, 0]",/sounds/legit/right70.wav,,,,,,,,,3,26,131,14,,,,,,,,,,,,,,,right,0.0506691932678,Participant16,23,60.0986670067,Male,trial,2017_May_29_1247,
,,0.36,"[-2.25, 0]",/sounds/legit/left35.wav,,,,,,,,,3,27,132,22,,,,,,,,,,,,,,,left,0.00175786018372,Participant16,23,60.0986670067,Male,trial,2017_May_29_1247,
,,0.1,"[2.25, 0]",/sounds/legit/right35.wav,,,,,,,,,3,28,133,5,,,,,,,,,,,,,,,right,0.718519926071,Participant16,23,60.0986670067,Male,trial,2017_May_29_1247,
,,0.23,"[-6.75, 0]",/sounds/legit/left100.wav,,,,,,,,,3,29,134,31,,,,,,,,,,,,,,,left,0.101377010345,Participant16,23,60.0986670067,Male,trial,2017_May_29_1247,
,,0.23,"[-2.25, 0]",/sounds/legit/left35.wav,,,,,,,,,3,30,135,21,,,,,,,,,,,,,,,left,0.467792987823,Participant16,23,60.0986670067,Male,trial,2017_May_29_1247,
,,0.23,"[-6.75, 0]",/sounds/legit/left100.wav,,,,,,,,,3,31,136,31,,,,,,,,,,,,,,,left,0.0845232009888,Participant16,23,60.0986670067,Male,trial,2017_May_29_1247,
,,0.49,"[-4.5, 0]",/sounds/legit/left70.wav,,,,,,,,,3,32,137,28,,,,,,,,,,,,,,,left,0.117127895355,Participant16,23,60.0986670067,Male,trial,2017_May_29_1247,
,,0.1,"[2.25, 0]",/sounds/legit/right35.wav,,,,,,,,,3,33,138,5,,,,,,,,,,,,,,,right,0.0176610946655,Participant16,23,60.0986670067,Male,trial,2017_May_29_1247,
,,0.49,"[-6.75, 0]",/sounds/legit/left100.wav,,,,,,,,,3,34,139,33,,,,,,,,,,,,,,,left,0.00204920768738,Participant16,23,60.0986670067,Male,trial,2017_May_29_1247,
,,0.36,"[2.25, 0]",/sounds/legit/right35.wav,,,,,,,,,4,0,140,7,,,,,,,,,,,,,,,right,0.0352890491486,Participant16,23,60.0986670067,Male,trial,2017_May_29_1247,
,,0.62,"[2.25, 0]",/sounds/legit/right35.wav,,,,,,,,,4,1,141,9,,,,,,,,,,,,,,,right,0.0842580795288,Participant16,23,60.0986670067,Male,trial,2017_May_29_1247,
,,0.49,"[-4.5, 0]",/sounds/legit/left70.wav,,,,,,,,,4,2,142,28,,,,,,,,,,,,,,,left,0.284784793854,Participant16,23,60.0986670067,Male,trial,2017_May_29_1247,
,,0.49,"[0, 0]",/sounds/legit/equal.wav,,,,,,,,,4,3,143,3,,,,,,,,,,,,,,,right,0.33573102951,Participant16,23,60.0986670067,Male,trial,2017_May_29_1247,
,,0.62,"[2.25, 0]",/sounds/legit/right35.wav,,,,,,,,,4,4,144,9,,,,,,,,,,,,,,,right,0.167701005936,Participant16,23,60.0986670067,Male,trial,2017_May_29_1247,
,,0.1,"[0, 0]",/sounds/legit/equal.wav,,,,,,,,,4,5,145,0,,,,,,,,,,,,,,,right,0.0186870098114,Participant16,23,60.0986670067,Male,trial,2017_May_29_1247,
,,0.49,"[4.5, 0]",/sounds/legit/right70.wav,,,,,,,,,4,6,146,13,,,,,,,,,,,,,,,right,0.00162577629089,Participant16,23,60.0986670067,Male,trial,2017_May_29_1247,
,,0.23,"[4.5, 0]",/sounds/legit/right70.wav,,,,,,,,,4,7,147,11,,,,,,,,,,,,,,,right,0.28532409668,Participant16,23,60.0986670067,Male,trial,2017_May_29_1247,
,,0.23,"[-4.5, 0]",/sounds/legit/left70.wav,,,,,,,,,4,8,148,26,,,,,,,,,,,,,,,left,0.285498142242,Participant16,23,60.0986670067,Male,trial,2017_May_29_1247,
,,0.1,"[-6.75, 0]",/sounds/legit/left100.wav,,,,,,,,,4,9,149,30,,,,,,,,,,,,,,,left,0.201669931412,Participant16,23,60.0986670067,Male,trial,2017_May_29_1247,
,,0.1,"[-2.25, 0]",/sounds/legit/left35.wav,,,,,,,,,4,10,150,20,,,,,,,,,,,,,,,left,0.384412050247,Participant16,23,60.0986670067,Male,trial,2017_May_29_1247,
,,0.1,"[-4.5, 0]",/sounds/legit/left70.wav,,,,,,,,,4,11,151,25,,,,,,,,,,,,,,,left,0.150254964828,Participant16,23,60.0986670067,Male,trial,2017_May_29_1247,
,,0.23,"[0, 0]",/sounds/legit/equal.wav,,,,,,,,,4,12,152,1,,,,,,,,,,,,,,,right,0.150340080261,Participant16,23,60.0986670067,Male,trial,2017_May_29_1247,
,,0.1,"[0, 0]",/sounds/legit/equal.wav,,,,,,,,,4,13,153,0,,,,,,,,,,,,,,,right,0.201648950577,Participant16,23,60.0986670067,Male,trial,2017_May_29_1247,
,,0.1,"[2.25, 0]",/sounds/legit/right35.wav,,,,,,,,,4,14,154,5,,,,,,,,,,,,,,,right,0.402191162109,Participant16,23,60.0986670067,Male,trial,2017_May_29_1247,
,,0.1,"[-6.75, 0]",/sounds/legit/left100.wav,,,,,,,,,4,15,155,30,,,,,,,,,,,,,,,left,0.167925834656,Participant16,23,60.0986670067,Male,trial,2017_May_29_1247,
,,0.36,"[2.25, 0]",/sounds/legit/right35.wav,,,,,,,,,4,16,156,7,,,,,,,,,,,,,,,right,2.51830387115,Participant16,23,60.0986670067,Male,trial,2017_May_29_1247,
,,0.23,"[4.5, 0]",/sounds/legit/right70.wav,,,,,,,,,4,17,157,11,,,,,,,,,,,,,,,right,1.30194091797,Participant16,23,60.0986670067,Male,trial,2017_May_29_1247,
,,0.49,"[4.5, 0]",/sounds/legit/right70.wav,,,,,,,,,4,18,158,13,,,,,,,,,,,,,,,right,0.18564915657,Participant16,23,60.0986670067,Male,trial,2017_May_29_1247,
,,0.49,"[4.5, 0]",/sounds/legit/right70.wav,,,,,,,,,4,19,159,13,,,,,,,,,,,,,,,right,0.218865871429,Participant16,23,60.0986670067,Male,trial,2017_May_29_1247,
,,0.62,"[6.75, 0]",/sounds/legit/right100.wav,,,,,,,,,4,20,160,19,,,,,,,,,,,,,,,right,0.0854980945587,Participant16,23,60.0986670067,Male,trial,2017_May_29_1247,
,,0.49,"[6.75, 0]",/sounds/legit/right100.wav,,,,,,,,,4,21,161,18,,,,,,,,,,,,,,,right,0.0346601009369,Participant16,23,60.0986670067,Male,trial,2017_May_29_1247,
,,0.1,"[6.75, 0]",/sounds/legit/right100.wav,,,,,,,,,4,22,162,15,,,,,,,,,,,,,,,right,0.268183946609,Participant16,23,60.0986670067,Male,trial,2017_May_29_1247,
,,0.23,"[-2.25, 0]",/sounds/legit/left35.wav,,,,,,,,,4,23,163,21,,,,,,,,,,,,,,,left,0.133629083633,Participant16,23,60.0986670067,Male,trial,2017_May_29_1247,
,,0.1,"[-6.75, 0]",/sounds/legit/left100.wav,,,,,,,,,4,24,164,30,,,,,,,,,,,,,,,left,0.218796014786,Participant16,23,60.0986670067,Male,trial,2017_May_29_1247,
,,0.49,"[4.5, 0]",/sounds/legit/right70.wav,,,,,,,,,4,25,165,13,,,,,,,,,,,,,,,right,0.151296854019,Participant16,23,60.0986670067,Male,trial,2017_May_29_1247,
,,0.23,"[6.75, 0]",/sounds/legit/right100.wav,,,,,,,,,4,26,166,16,,,,,,,,,,,,,,,right,0.267566919327,Participant16,23,60.0986670067,Male,trial,2017_May_29_1247,
,,0.62,"[-6.75, 0]",/sounds/legit/left100.wav,,,,,,,,,4,27,167,34,,,,,,,,,,,,,,,left,0.268840789795,Participant16,23,60.0986670067,Male,trial,2017_May_29_1247,
,,0.23,"[-4.5, 0]",/sounds/legit/left70.wav,,,,,,,,,4,28,168,26,,,,,,,,,,,,,,,left,0.201909065247,Participant16,23,60.0986670067,Male,trial,2017_May_29_1247,
,,0.36,"[6.75, 0]",/sounds/legit/right100.wav,,,,,,,,,4,29,169,17,,,,,,,,,,,,,,,right,0.301409959793,Participant16,23,60.0986670067,Male,trial,2017_May_29_1247,
,,0.23,"[6.75, 0]",/sounds/legit/right100.wav,,,,,,,,,4,30,170,16,,,,,,,,,,,,,,,right,0.318768024445,Participant16,23,60.0986670067,Male,trial,2017_May_29_1247,
,,0.1,"[2.25, 0]",/sounds/legit/right35.wav,,,,,,,,,4,31,171,5,,,,,,,,,,,,,,,right,0.251364946365,Participant16,23,60.0986670067,Male,trial,2017_May_29_1247,
,,0.49,"[4.5, 0]",/sounds/legit/right70.wav,,,,,,,,,4,32,172,13,,,,,,,,,,,,,,,right,0.168012857437,Participant16,23,60.0986670067,Male,trial,2017_May_29_1247,
,,0.1,"[-4.5, 0]",/sounds/legit/left70.wav,,,,,,,,,4,33,173,25,,,,,,,,,,,,,,,left,0.184957027435,Participant16,23,60.0986670067,Male,trial,2017_May_29_1247,
,,0.1,"[-4.5, 0]",/sounds/legit/left70.wav,,,,,,,,,4,34,174,25,,,,,,,,,,,,,,,left,0.184529066086,Participant16,23,60.0986670067,Male,trial,2017_May_29_1247,
,,0.23,"[2.25, 0]",/sounds/legit/right35.wav,,,,,,,,,5,0,175,6,,,,,,,,,,,,,,,right,0.200792074203,Participant16,23,60.0986670067,Male,trial,2017_May_29_1247,
,,0.62,"[2.25, 0]",/sounds/legit/right35.wav,,,,,,,,,5,1,176,9,,,,,,,,,,,,,,,right,0.235085964203,Participant16,23,60.0986670067,Male,trial,2017_May_29_1247,
,,0.1,"[-2.25, 0]",/sounds/legit/left35.wav,,,,,,,,,5,2,177,20,,,,,,,,,,,,,,,left,0.235424995422,Participant16,23,60.0986670067,Male,trial,2017_May_29_1247,
,,0.36,"[6.75, 0]",/sounds/legit/right100.wav,,,,,,,,,5,3,178,17,,,,,,,,,,,,,,,right,0.00154399871826,Participant16,23,60.0986670067,Male,trial,2017_May_29_1247,
,,0.23,"[-6.75, 0]",/sounds/legit/left100.wav,,,,,,,,,5,4,179,31,,,,,,,,,,,,,,,left,0.952652931213,Participant16,23,60.0986670067,Male,trial,2017_May_29_1247,
,,0.49,"[6.75, 0]",/sounds/legit/right100.wav,,,,,,,,,5,5,180,18,,,,,,,,,,,,,,,right,0.28497505188,Participant16,23,60.0986670067,Male,trial,2017_May_29_1247,
,,0.23,"[-4.5, 0]",/sounds/legit/left70.wav,,,,,,,,,5,6,181,26,,,,,,,,,,,,,,,left,0.134293079376,Participant16,23,60.0986670067,Male,trial,2017_May_29_1247,
,,0.49,"[2.25, 0]",/sounds/legit/right35.wav,,,,,,,,,5,7,182,8,,,,,,,,,,,,,,,right,0.400802850723,Participant16,23,60.0986670067,Male,trial,2017_May_29_1247,
,,0.23,"[2.25, 0]",/sounds/legit/right35.wav,,,,,,,,,5,8,183,6,,,,,,,,,,,,,,,right,0.050595998764,Participant16,23,60.0986670067,Male,trial,2017_May_29_1247,
,,0.23,"[0, 0]",/sounds/legit/equal.wav,,,,,,,,,5,9,184,1,,,,,,,,,,,,,,,right,0.00160789489746,Participant16,23,60.0986670067,Male,trial,2017_May_29_1247,
,,0.23,"[-6.75, 0]",/sounds/legit/left100.wav,,,,,,,,,5,10,185,31,,,,,,,,,,,,,,,left,0.818586111069,Participant16,23,60.0986670067,Male,trial,2017_May_29_1247,
,,0.23,"[4.5, 0]",/sounds/legit/right70.wav,,,,,,,,,5,11,186,11,,,,,,,,,,,,,,,right,0.185225009918,Participant16,23,60.0986670067,Male,trial,2017_May_29_1247,
,,0.36,"[0, 0]",/sounds/legit/equal.wav,,,,,,,,,5,12,187,2,,,,,,,,,,,,,,,right,0.0858199596405,Participant16,23,60.0986670067,Male,trial,2017_May_29_1247,
,,0.62,"[6.75, 0]",/sounds/legit/right100.wav,,,,,,,,,5,13,188,19,,,,,,,,,,,,,,,right,0.0496609210968,Participant16,23,60.0986670067,Male,trial,2017_May_29_1247,
,,0.1,"[-4.5, 0]",/sounds/legit/left70.wav,,,,,,,,,5,14,189,25,,,,,,,,,,,,,,,left,0.150635004044,Participant16,23,60.0986670067,Male,trial,2017_May_29_1247,
,,0.36,"[6.75, 0]",/sounds/legit/right100.wav,,,,,,,,,5,15,190,17,,,,,,,,,,,,,,,right,0.333292007446,Participant16,23,60.0986670067,Male,trial,2017_May_29_1247,
,,0.1,"[4.5, 0]",/sounds/legit/right70.wav,,,,,,,,,5,16,191,10,,,,,,,,,,,,,,,right,0.451503992081,Participant16,23,60.0986670067,Male,trial,2017_May_29_1247,
,,0.62,"[-6.75, 0]",/sounds/legit/left100.wav,,,,,,,,,5,17,192,34,,,,,,,,,,,,,,,left,0.250455856323,Participant16,23,60.0986670067,Male,trial,2017_May_29_1247,
,,0.49,"[-4.5, 0]",/sounds/legit/left70.wav,,,,,,,,,5,18,193,28,,,,,,,,,,,,,,,left,0.301844835281,Participant16,23,60.0986670067,Male,trial,2017_May_29_1247,
,,0.1,"[-2.25, 0]",/sounds/legit/left35.wav,,,,,,,,,5,19,194,20,,,,,,,,,,,,,,,left,0.318464994431,Participant16,23,60.0986670067,Male,trial,2017_May_29_1247,
,,0.23,"[2.25, 0]",/sounds/legit/right35.wav,,,,,,,,,5,20,195,6,,,,,,,,,,,,,,,right,0.334985017776,Participant16,23,60.0986670067,Male,trial,2017_May_29_1247,
,,0.62,"[-2.25, 0]",/sounds/legit/left35.wav,,,,,,,,,5,21,196,24,,,,,,,,,,,,,,,left,0.268253803253,Participant16,23,60.0986670067,Male,trial,2017_May_29_1247,
,,0.23,"[-4.5, 0]",/sounds/legit/left70.wav,,,,,,,,,5,22,197,26,,,,,,,,,,,,,,,left,0.152145147324,Participant16,23,60.0986670067,Male,trial,2017_May_29_1247,
,,0.1,"[4.5, 0]",/sounds/legit/right70.wav,,,,,,,,,5,23,198,10,,,,,,,,,,,,,,,right,1.06879091263,Participant16,23,60.0986670067,Male,trial,2017_May_29_1247,
,,0.49,"[0, 0]",/sounds/legit/equal.wav,,,,,,,,,5,24,199,3,,,,,,,,,,,,,,,right,0.20193195343,Participant16,23,60.0986670067,Male,trial,2017_May_29_1247,
,,0.23,"[4.5, 0]",/sounds/legit/right70.wav,,,,,,,,,5,25,200,11,,,,,,,,,,,,,,,right,2.51707601547,Participant16,23,60.0986670067,Male,trial,2017_May_29_1247,
,,0.49,"[-4.5, 0]",/sounds/legit/left70.wav,,,,,,,,,5,26,201,28,,,,,,,,,,,,,,,left,1.48544001579,Participant16,23,60.0986670067,Male,trial,2017_May_29_1247,
,,0.23,"[-2.25, 0]",/sounds/legit/left35.wav,,,,,,,,,5,27,202,21,,,,,,,,,,,,,,,left,1.35164809227,Participant16,23,60.0986670067,Male,trial,2017_May_29_1247,
,,0.36,"[6.75, 0]",/sounds/legit/right100.wav,,,,,,,,,5,28,203,17,,,,,,,,,,,,,,,left,3.02028107643,Participant16,23,60.0986670067,Male,trial,2017_May_29_1247,
,,0.1,"[-4.5, 0]",/sounds/legit/left70.wav,,,,,,,,,5,29,204,25,,,,,,,,,,,,,,,left,0.201979160309,Participant16,23,60.0986670067,Male,trial,2017_May_29_1247,
,,0.62,"[-4.5, 0]",/sounds/legit/left70.wav,,,,,,,,,5,30,205,29,,,,,,,,,,,,,,,left,0.318506002426,Participant16,23,60.0986670067,Male,trial,2017_May_29_1247,
,,0.49,"[4.5, 0]",/sounds/legit/right70.wav,,,,,,,,,5,31,206,13,,,,,,,,,,,,,,,right,0.318418979645,Participant16,23,60.0986670067,Male,trial,2017_May_29_1247,
,,0.49,"[-4.5, 0]",/sounds/legit/left70.wav,,,,,,,,,5,32,207,28,,,,,,,,,,,,,,,left,0.282804012299,Participant16,23,60.0986670067,Male,trial,2017_May_29_1247,
,,0.1,"[2.25, 0]",/sounds/legit/right35.wav,,,,,,,,,5,33,208,5,,,,,,,,,,,,,,,right,0.251121997833,Participant16,23,60.0986670067,Male,trial,2017_May_29_1247,
,,0.62,"[4.5, 0]",/sounds/legit/right70.wav,,,,,,,,,5,34,209,14,,,,,,,,,,,,,,,right,0.518270015717,Participant16,23,60.0986670067,Male,trial,2017_May_29_1247,
,,0.23,"[2.25, 0]",/sounds/legit/right35.wav,,,,,,,,,6,0,210,6,,,,,,,,,,,,,,,right,0.00174283981323,Participant16,23,60.0986670067,Male,trial,2017_May_29_1247,
