path,name,noise,location,correspondingAudio,audiotrials.thisRepN,audiotrials.thisTrialN,audiotrials.thisN,audiotrials.thisIndex,visualTrials.thisRepN,visualTrials.thisTrialN,visualTrials.thisN,visualTrials.thisIndex,combinedTrials.thisRepN,combinedTrials.thisTrialN,combinedTrials.thisN,combinedTrials.thisIndex,WelcomeKey.keys,WelcomeKey.rt,key_resp_2.keys,key_resp_2.rt,AudioInstrAccept.keys,AudioInstrAccept.rt,LeftorRight.keys,LeftorRight.rt,VisualBlock.keys,VisualBlock.rt,VisualDecision.keys,VisualDecision.rt,CombinedAccept.keys,CombinedAccept.rt,CombComparisonResponse.keys,CombComparisonResponse.rt,participant,age,frameRate,sex,expName,date,
,,,,,,,,,,,,,,,,,space,40.7078120708,,,,,,,,,,,,,,,participant15,24,59.9523731929,Male,trial,2017_May_28_2029,
,,,,,,,,,,,,,,,,,,,space,25.8488180637,,,,,,,,,,,,,participant15,24,59.9523731929,Male,trial,2017_May_28_2029,
,,,,,,,,,,,,,,,,,,,,,space,23.2953178883,,,,,,,,,,,participant15,24,59.9523731929,Male,trial,2017_May_28_2029,
/sounds/legit/left70.wav,left60,,,,0,0,0,1,,,,,,,,,,,,,,,left,3.33721208572,,,,,,,,,participant15,24,59.9523731929,Male,trial,2017_May_28_2029,
/sounds/legit/right70.wav,right60,,,,0,1,1,4,,,,,,,,,,,,,,,right,1.03501391411,,,,,,,,,participant15,24,59.9523731929,Male,trial,2017_May_28_2029,
/sounds/legit/right100.wav,right100,,,,0,2,2,5,,,,,,,,,,,,,,,right,0.31800699234,,,,,,,,,participant15,24,59.9523731929,Male,trial,2017_May_28_2029,
/sounds/legit/left35.wav,left30,,,,0,3,3,2,,,,,,,,,,,,,,,left,0.251516103745,,,,,,,,,participant15,24,59.9523731929,Male,trial,2017_May_28_2029,
/sounds/legit/right35.wav,right30,,,,0,4,4,3,,,,,,,,,,,,,,,right,0.252457141876,,,,,,,,,participant15,24,59.9523731929,Male,trial,2017_May_28_2029,
/sounds/legit/left100.wav,left100,,,,0,5,5,0,,,,,,,,,,,,,,,left,0.235009908676,,,,,,,,,participant15,24,59.9523731929,Male,trial,2017_May_28_2029,
/sounds/legit/equal.wav,equal,,,,0,6,6,6,,,,,,,,,,,,,,,left,0.71878194809,,,,,,,,,participant15,24,59.9523731929,Male,trial,2017_May_28_2029,
/sounds/legit/right70.wav,right60,,,,1,0,7,4,,,,,,,,,,,,,,,right,0.301967859268,,,,,,,,,participant15,24,59.9523731929,Male,trial,2017_May_28_2029,
/sounds/legit/left100.wav,left100,,,,1,1,8,0,,,,,,,,,,,,,,,left,0.235716819763,,,,,,,,,participant15,24,59.9523731929,Male,trial,2017_May_28_2029,
/sounds/legit/equal.wav,equal,,,,1,2,9,6,,,,,,,,,,,,,,,left,0.301249027252,,,,,,,,,participant15,24,59.9523731929,Male,trial,2017_May_28_2029,
/sounds/legit/left70.wav,left60,,,,1,3,10,1,,,,,,,,,,,,,,,left,0.301784038544,,,,,,,,,participant15,24,59.9523731929,Male,trial,2017_May_28_2029,
/sounds/legit/right35.wav,right30,,,,1,4,11,3,,,,,,,,,,,,,,,right,0.585206031799,,,,,,,,,participant15,24,59.9523731929,Male,trial,2017_May_28_2029,
/sounds/legit/left35.wav,left30,,,,1,5,12,2,,,,,,,,,,,,,,,left,0.317929983139,,,,,,,,,participant15,24,59.9523731929,Male,trial,2017_May_28_2029,
/sounds/legit/right100.wav,right100,,,,1,6,13,5,,,,,,,,,,,,,,,right,0.268670082092,,,,,,,,,participant15,24,59.9523731929,Male,trial,2017_May_28_2029,
/sounds/legit/right100.wav,right100,,,,2,0,14,5,,,,,,,,,,,,,,,right,0.285175085068,,,,,,,,,participant15,24,59.9523731929,Male,trial,2017_May_28_2029,
/sounds/legit/left35.wav,left30,,,,2,1,15,2,,,,,,,,,,,,,,,left,0.251741886139,,,,,,,,,participant15,24,59.9523731929,Male,trial,2017_May_28_2029,
/sounds/legit/left70.wav,left60,,,,2,2,16,1,,,,,,,,,,,,,,,left,0.28531908989,,,,,,,,,participant15,24,59.9523731929,Male,trial,2017_May_28_2029,
/sounds/legit/equal.wav,equal,,,,2,3,17,6,,,,,,,,,,,,,,,left,0.384436845779,,,,,,,,,participant15,24,59.9523731929,Male,trial,2017_May_28_2029,
/sounds/legit/right70.wav,right60,,,,2,4,18,4,,,,,,,,,,,,,,,right,0.450446128845,,,,,,,,,participant15,24,59.9523731929,Male,trial,2017_May_28_2029,
/sounds/legit/left100.wav,left100,,,,2,5,19,0,,,,,,,,,,,,,,,left,0.235553026199,,,,,,,,,participant15,24,59.9523731929,Male,trial,2017_May_28_2029,
/sounds/legit/right35.wav,right30,,,,2,6,20,3,,,,,,,,,,,,,,,right,0.251747846603,,,,,,,,,participant15,24,59.9523731929,Male,trial,2017_May_28_2029,
/sounds/legit/left35.wav,left30,,,,3,0,21,2,,,,,,,,,,,,,,,left,0.352157831192,,,,,,,,,participant15,24,59.9523731929,Male,trial,2017_May_28_2029,
/sounds/legit/right35.wav,right30,,,,3,1,22,3,,,,,,,,,,,,,,,right,0.435689210892,,,,,,,,,participant15,24,59.9523731929,Male,trial,2017_May_28_2029,
/sounds/legit/right100.wav,right100,,,,3,2,23,5,,,,,,,,,,,,,,,right,0.217530965805,,,,,,,,,participant15,24,59.9523731929,Male,trial,2017_May_28_2029,
/sounds/legit/left70.wav,left60,,,,3,3,24,1,,,,,,,,,,,,,,,left,0.201451063156,,,,,,,,,participant15,24,59.9523731929,Male,trial,2017_May_28_2029,
/sounds/legit/right70.wav,right60,,,,3,4,25,4,,,,,,,,,,,,,,,right,0.33497095108,,,,,,,,,participant15,24,59.9523731929,Male,trial,2017_May_28_2029,
/sounds/legit/left100.wav,left100,,,,3,5,26,0,,,,,,,,,,,,,,,left,0.201486825943,,,,,,,,,participant15,24,59.9523731929,Male,trial,2017_May_28_2029,
/sounds/legit/equal.wav,equal,,,,3,6,27,6,,,,,,,,,,,,,,,left,0.21816778183,,,,,,,,,participant15,24,59.9523731929,Male,trial,2017_May_28_2029,
/sounds/legit/left35.wav,left30,,,,4,0,28,2,,,,,,,,,,,,,,,left,0.23463511467,,,,,,,,,participant15,24,59.9523731929,Male,trial,2017_May_28_2029,
/sounds/legit/equal.wav,equal,,,,4,1,29,6,,,,,,,,,,,,,,,left,0.284873962402,,,,,,,,,participant15,24,59.9523731929,Male,trial,2017_May_28_2029,
/sounds/legit/right70.wav,right60,,,,4,2,30,4,,,,,,,,,,,,,,,right,0.266064882278,,,,,,,,,participant15,24,59.9523731929,Male,trial,2017_May_28_2029,
/sounds/legit/left100.wav,left100,,,,4,3,31,0,,,,,,,,,,,,,,,left,0.317169904709,,,,,,,,,participant15,24,59.9523731929,Male,trial,2017_May_28_2029,
/sounds/legit/right35.wav,right30,,,,4,4,32,3,,,,,,,,,,,,,,,right,0.235083818436,,,,,,,,,participant15,24,59.9523731929,Male,trial,2017_May_28_2029,
/sounds/legit/left70.wav,left60,,,,4,5,33,1,,,,,,,,,,,,,,,left,0.201757907867,,,,,,,,,participant15,24,59.9523731929,Male,trial,2017_May_28_2029,
/sounds/legit/right100.wav,right100,,,,4,6,34,5,,,,,,,,,,,,,,,right,0.285620927811,,,,,,,,,participant15,24,59.9523731929,Male,trial,2017_May_28_2029,
/sounds/legit/right100.wav,right100,,,,5,0,35,5,,,,,,,,,,,,,,,right,0.451355934143,,,,,,,,,participant15,24,59.9523731929,Male,trial,2017_May_28_2029,
/sounds/legit/right35.wav,right30,,,,5,1,36,3,,,,,,,,,,,,,,,right,0.45094203949,,,,,,,,,participant15,24,59.9523731929,Male,trial,2017_May_28_2029,
/sounds/legit/left70.wav,left60,,,,5,2,37,1,,,,,,,,,,,,,,,left,0.368757009506,,,,,,,,,participant15,24,59.9523731929,Male,trial,2017_May_28_2029,
/sounds/legit/left100.wav,left100,,,,5,3,38,0,,,,,,,,,,,,,,,left,0.385427951813,,,,,,,,,participant15,24,59.9523731929,Male,trial,2017_May_28_2029,
/sounds/legit/equal.wav,equal,,,,5,4,39,6,,,,,,,,,,,,,,,left,0.369157075882,,,,,,,,,participant15,24,59.9523731929,Male,trial,2017_May_28_2029,
/sounds/legit/right70.wav,right60,,,,5,5,40,4,,,,,,,,,,,,,,,right,0.167923927307,,,,,,,,,participant15,24,59.9523731929,Male,trial,2017_May_28_2029,
/sounds/legit/left35.wav,left30,,,,5,6,41,2,,,,,,,,,,,,,,,left,24.6316788197,,,,,,,,,participant15,24,59.9523731929,Male,trial,2017_May_28_2029,
/sounds/legit/right100.wav,right100,,,,6,0,42,5,,,,,,,,,,,,,,,right,0.234066009521,,,,,,,,,participant15,24,59.9523731929,Male,trial,2017_May_28_2029,
/sounds/legit/left100.wav,left100,,,,6,1,43,0,,,,,,,,,,,,,,,left,0.216617822647,,,,,,,,,participant15,24,59.9523731929,Male,trial,2017_May_28_2029,
/sounds/legit/equal.wav,equal,,,,6,2,44,6,,,,,,,,,,,,,,,right,1.40185499191,,,,,,,,,participant15,24,59.9523731929,Male,trial,2017_May_28_2029,
/sounds/legit/left70.wav,left60,,,,6,3,45,1,,,,,,,,,,,,,,,left,0.201571941376,,,,,,,,,participant15,24,59.9523731929,Male,trial,2017_May_28_2029,
/sounds/legit/right35.wav,right30,,,,6,4,46,3,,,,,,,,,,,,,,,right,0.43542098999,,,,,,,,,participant15,24,59.9523731929,Male,trial,2017_May_28_2029,
/sounds/legit/right70.wav,right60,,,,6,5,47,4,,,,,,,,,,,,,,,right,0.151255846024,,,,,,,,,participant15,24,59.9523731929,Male,trial,2017_May_28_2029,
/sounds/legit/left35.wav,left30,,,,6,6,48,2,,,,,,,,,,,,,,,left,3.3536169529,,,,,,,,,participant15,24,59.9523731929,Male,trial,2017_May_28_2029,
/sounds/legit/left35.wav,left30,,,,7,0,49,2,,,,,,,,,,,,,,,left,0.201900959015,,,,,,,,,participant15,24,59.9523731929,Male,trial,2017_May_28_2029,
/sounds/legit/left100.wav,left100,,,,7,1,50,0,,,,,,,,,,,,,,,left,1.06907200813,,,,,,,,,participant15,24,59.9523731929,Male,trial,2017_May_28_2029,
/sounds/legit/left70.wav,left60,,,,7,2,51,1,,,,,,,,,,,,,,,left,0.485970973969,,,,,,,,,participant15,24,59.9523731929,Male,trial,2017_May_28_2029,
/sounds/legit/right35.wav,right30,,,,7,3,52,3,,,,,,,,,,,,,,,right,0.300757884979,,,,,,,,,participant15,24,59.9523731929,Male,trial,2017_May_28_2029,
/sounds/legit/right70.wav,right60,,,,7,4,53,4,,,,,,,,,,,,,,,right,0.168574810028,,,,,,,,,participant15,24,59.9523731929,Male,trial,2017_May_28_2029,
/sounds/legit/right100.wav,right100,,,,7,5,54,5,,,,,,,,,,,,,,,right,0.25164103508,,,,,,,,,participant15,24,59.9523731929,Male,trial,2017_May_28_2029,
/sounds/legit/equal.wav,equal,,,,7,6,55,6,,,,,,,,,,,,,,,left,0.234634876251,,,,,,,,,participant15,24,59.9523731929,Male,trial,2017_May_28_2029,
/sounds/legit/left35.wav,left30,,,,8,0,56,2,,,,,,,,,,,,,,,left,0.469382047653,,,,,,,,,participant15,24,59.9523731929,Male,trial,2017_May_28_2029,
/sounds/legit/right35.wav,right30,,,,8,1,57,3,,,,,,,,,,,,,,,right,0.385687112808,,,,,,,,,participant15,24,59.9523731929,Male,trial,2017_May_28_2029,
/sounds/legit/left70.wav,left60,,,,8,2,58,1,,,,,,,,,,,,,,,left,0.418190956116,,,,,,,,,participant15,24,59.9523731929,Male,trial,2017_May_28_2029,
/sounds/legit/equal.wav,equal,,,,8,3,59,6,,,,,,,,,,,,,,,right,0.585004091263,,,,,,,,,participant15,24,59.9523731929,Male,trial,2017_May_28_2029,
/sounds/legit/left100.wav,left100,,,,8,4,60,0,,,,,,,,,,,,,,,left,0.117825984955,,,,,,,,,participant15,24,59.9523731929,Male,trial,2017_May_28_2029,
/sounds/legit/right100.wav,right100,,,,8,5,61,5,,,,,,,,,,,,,,,right,0.199808835983,,,,,,,,,participant15,24,59.9523731929,Male,trial,2017_May_28_2029,
/sounds/legit/right70.wav,right60,,,,8,6,62,4,,,,,,,,,,,,,,,right,0.10107088089,,,,,,,,,participant15,24,59.9523731929,Male,trial,2017_May_28_2029,
/sounds/legit/left100.wav,left100,,,,9,0,63,0,,,,,,,,,,,,,,,left,0.685172080994,,,,,,,,,participant15,24,59.9523731929,Male,trial,2017_May_28_2029,
/sounds/legit/right100.wav,right100,,,,9,1,64,5,,,,,,,,,,,,,,,right,0.451967000961,,,,,,,,,participant15,24,59.9523731929,Male,trial,2017_May_28_2029,
/sounds/legit/left35.wav,left30,,,,9,2,65,2,,,,,,,,,,,,,,,left,0.467309951782,,,,,,,,,participant15,24,59.9523731929,Male,trial,2017_May_28_2029,
/sounds/legit/right70.wav,right60,,,,9,3,66,4,,,,,,,,,,,,,,,right,0.351521015167,,,,,,,,,participant15,24,59.9523731929,Male,trial,2017_May_28_2029,
/sounds/legit/right35.wav,right30,,,,9,4,67,3,,,,,,,,,,,,,,,right,0.684849977493,,,,,,,,,participant15,24,59.9523731929,Male,trial,2017_May_28_2029,
/sounds/legit/equal.wav,equal,,,,9,5,68,6,,,,,,,,,,,,,,,right,0.352495908737,,,,,,,,,participant15,24,59.9523731929,Male,trial,2017_May_28_2029,
/sounds/legit/left70.wav,left60,,,,9,6,69,1,,,,,,,,,,,,,,,left,0.268649101257,,,,,,,,,participant15,24,59.9523731929,Male,trial,2017_May_28_2029,
,,,,,,,,,,,,,,,,,,,,,,,,,space,25.2982990742,,,,,,,participant15,24,59.9523731929,Male,trial,2017_May_28_2029,
,,0.49,"[2.25, 0]",/sounds/legit/right35.wav,,,,,0,0,0,8,,,,,,,,,,,,,,,right,60.9335179329,,,,,participant15,24,59.9523731929,Male,trial,2017_May_28_2029,
,,0.23,"[-2.25, 0]",/sounds/legit/left35.wav,,,,,0,1,1,21,,,,,,,,,,,,,,,left,0.38515996933,,,,,participant15,24,59.9523731929,Male,trial,2017_May_28_2029,
,,0.36,"[-6.75, 0]",/sounds/legit/left100.wav,,,,,0,2,2,32,,,,,,,,,,,,,,,left,0.251231908798,,,,,participant15,24,59.9523731929,Male,trial,2017_May_28_2029,
,,0.62,"[6.75, 0]",/sounds/legit/right100.wav,,,,,0,3,3,19,,,,,,,,,,,,,,,right,0.051470041275,,,,,participant15,24,59.9523731929,Male,trial,2017_May_28_2029,
,,0.1,"[-2.25, 0]",/sounds/legit/left35.wav,,,,,0,4,4,20,,,,,,,,,,,,,,,left,1.78529000282,,,,,participant15,24,59.9523731929,Male,trial,2017_May_28_2029,
,,0.49,"[4.5, 0]",/sounds/legit/right70.wav,,,,,0,5,5,13,,,,,,,,,,,,,,,right,1.43510913849,,,,,participant15,24,59.9523731929,Male,trial,2017_May_28_2029,
,,0.23,"[0, 0]",/sounds/legit/equal.wav,,,,,0,6,6,1,,,,,,,,,,,,,,,left,0.835148096085,,,,,participant15,24,59.9523731929,Male,trial,2017_May_28_2029,
,,0.62,"[-6.75, 0]",/sounds/legit/left100.wav,,,,,0,7,7,34,,,,,,,,,,,,,,,left,0.134648084641,,,,,participant15,24,59.9523731929,Male,trial,2017_May_28_2029,
,,0.23,"[-6.75, 0]",/sounds/legit/left100.wav,,,,,0,8,8,31,,,,,,,,,,,,,,,left,0.501951932907,,,,,participant15,24,59.9523731929,Male,trial,2017_May_28_2029,
,,0.1,"[4.5, 0]",/sounds/legit/right70.wav,,,,,0,9,9,10,,,,,,,,,,,,,,,right,0.386065006256,,,,,participant15,24,59.9523731929,Male,trial,2017_May_28_2029,
,,0.36,"[-4.5, 0]",/sounds/legit/left70.wav,,,,,0,10,10,27,,,,,,,,,,,,,,,left,0.40161895752,,,,,participant15,24,59.9523731929,Male,trial,2017_May_28_2029,
,,0.36,"[0, 0]",/sounds/legit/equal.wav,,,,,0,11,11,2,,,,,,,,,,,,,,,left,0.500967979431,,,,,participant15,24,59.9523731929,Male,trial,2017_May_28_2029,
,,0.49,"[6.75, 0]",/sounds/legit/right100.wav,,,,,0,12,12,18,,,,,,,,,,,,,,,right,0.417891025543,,,,,participant15,24,59.9523731929,Male,trial,2017_May_28_2029,
,,0.49,"[-4.5, 0]",/sounds/legit/left70.wav,,,,,0,13,13,28,,,,,,,,,,,,,,,left,0.23486995697,,,,,participant15,24,59.9523731929,Male,trial,2017_May_28_2029,
,,0.62,"[-4.5, 0]",/sounds/legit/left70.wav,,,,,0,14,14,29,,,,,,,,,,,,,,,left,0.351443052292,,,,,participant15,24,59.9523731929,Male,trial,2017_May_28_2029,
,,0.62,"[-2.25, 0]",/sounds/legit/left35.wav,,,,,0,15,15,24,,,,,,,,,,,,,,,left,0.350967168808,,,,,participant15,24,59.9523731929,Male,trial,2017_May_28_2029,
,,0.36,"[4.5, 0]",/sounds/legit/right70.wav,,,,,0,16,16,12,,,,,,,,,,,,,,,right,0.435855865479,,,,,participant15,24,59.9523731929,Male,trial,2017_May_28_2029,
,,0.62,"[0, 0]",/sounds/legit/equal.wav,,,,,0,17,17,4,,,,,,,,,,,,,,,left,0.850998878479,,,,,participant15,24,59.9523731929,Male,trial,2017_May_28_2029,
,,0.23,"[4.5, 0]",/sounds/legit/right70.wav,,,,,0,18,18,11,,,,,,,,,,,,,,,right,0.468227863312,,,,,participant15,24,59.9523731929,Male,trial,2017_May_28_2029,
,,0.23,"[-4.5, 0]",/sounds/legit/left70.wav,,,,,0,19,19,26,,,,,,,,,,,,,,,left,0.335344076157,,,,,participant15,24,59.9523731929,Male,trial,2017_May_28_2029,
,,0.1,"[2.25, 0]",/sounds/legit/right35.wav,,,,,0,20,20,5,,,,,,,,,,,,,,,right,0.301373004913,,,,,participant15,24,59.9523731929,Male,trial,2017_May_28_2029,
,,0.23,"[2.25, 0]",/sounds/legit/right35.wav,,,,,0,21,21,6,,,,,,,,,,,,,,,right,0.317893981934,,,,,participant15,24,59.9523731929,Male,trial,2017_May_28_2029,
,,0.23,"[6.75, 0]",/sounds/legit/right100.wav,,,,,0,22,22,16,,,,,,,,,,,,,,,right,0.318317890167,,,,,participant15,24,59.9523731929,Male,trial,2017_May_28_2029,
,,0.49,"[-6.75, 0]",/sounds/legit/left100.wav,,,,,0,23,23,33,,,,,,,,,,,,,,,left,0.367393016815,,,,,participant15,24,59.9523731929,Male,trial,2017_May_28_2029,
,,0.36,"[-2.25, 0]",/sounds/legit/left35.wav,,,,,0,24,24,22,,,,,,,,,,,,,,,left,0.251354932785,,,,,participant15,24,59.9523731929,Male,trial,2017_May_28_2029,
,,0.1,"[0, 0]",/sounds/legit/equal.wav,,,,,0,25,25,0,,,,,,,,,,,,,,,left,0.21740603447,,,,,participant15,24,59.9523731929,Male,trial,2017_May_28_2029,
,,0.36,"[6.75, 0]",/sounds/legit/right100.wav,,,,,0,26,26,17,,,,,,,,,,,,,,,right,0.602096796036,,,,,participant15,24,59.9523731929,Male,trial,2017_May_28_2029,
,,0.36,"[2.25, 0]",/sounds/legit/right35.wav,,,,,0,27,27,7,,,,,,,,,,,,,,,right,0.285202026367,,,,,participant15,24,59.9523731929,Male,trial,2017_May_28_2029,
,,0.1,"[-4.5, 0]",/sounds/legit/left70.wav,,,,,0,28,28,25,,,,,,,,,,,,,,,left,0.234723091125,,,,,participant15,24,59.9523731929,Male,trial,2017_May_28_2029,
,,0.1,"[6.75, 0]",/sounds/legit/right100.wav,,,,,0,29,29,15,,,,,,,,,,,,,,,right,0.252038002014,,,,,participant15,24,59.9523731929,Male,trial,2017_May_28_2029,
,,0.49,"[0, 0]",/sounds/legit/equal.wav,,,,,0,30,30,3,,,,,,,,,,,,,,,left,0.401990890503,,,,,participant15,24,59.9523731929,Male,trial,2017_May_28_2029,
,,0.49,"[-2.25, 0]",/sounds/legit/left35.wav,,,,,0,31,31,23,,,,,,,,,,,,,,,left,0.168157100677,,,,,participant15,24,59.9523731929,Male,trial,2017_May_28_2029,
,,0.62,"[2.25, 0]",/sounds/legit/right35.wav,,,,,0,32,32,9,,,,,,,,,,,,,,,right,0.234949827194,,,,,participant15,24,59.9523731929,Male,trial,2017_May_28_2029,
,,0.62,"[4.5, 0]",/sounds/legit/right70.wav,,,,,0,33,33,14,,,,,,,,,,,,,,,right,0.301649093628,,,,,participant15,24,59.9523731929,Male,trial,2017_May_28_2029,
,,0.1,"[-6.75, 0]",/sounds/legit/left100.wav,,,,,0,34,34,30,,,,,,,,,,,,,,,left,0.26856803894,,,,,participant15,24,59.9523731929,Male,trial,2017_May_28_2029,
,,0.36,"[6.75, 0]",/sounds/legit/right100.wav,,,,,1,0,35,17,,,,,,,,,,,,,,,right,0.235247850418,,,,,participant15,24,59.9523731929,Male,trial,2017_May_28_2029,
,,0.23,"[-6.75, 0]",/sounds/legit/left100.wav,,,,,1,1,36,31,,,,,,,,,,,,,,,left,0.0844280719757,,,,,participant15,24,59.9523731929,Male,trial,2017_May_28_2029,
,,0.62,"[0, 0]",/sounds/legit/equal.wav,,,,,1,2,37,4,,,,,,,,,,,,,,,left,0.235322952271,,,,,participant15,24,59.9523731929,Male,trial,2017_May_28_2029,
,,0.1,"[-4.5, 0]",/sounds/legit/left70.wav,,,,,1,3,38,25,,,,,,,,,,,,,,,left,0.402163028717,,,,,participant15,24,59.9523731929,Male,trial,2017_May_28_2029,
,,0.1,"[-6.75, 0]",/sounds/legit/left100.wav,,,,,1,4,39,30,,,,,,,,,,,,,,,left,0.301978111267,,,,,participant15,24,59.9523731929,Male,trial,2017_May_28_2029,
,,0.1,"[-2.25, 0]",/sounds/legit/left35.wav,,,,,1,5,40,20,,,,,,,,,,,,,,,left,0.318740129471,,,,,participant15,24,59.9523731929,Male,trial,2017_May_28_2029,
,,0.23,"[0, 0]",/sounds/legit/equal.wav,,,,,1,6,41,1,,,,,,,,,,,,,,,left,0.235846042633,,,,,participant15,24,59.9523731929,Male,trial,2017_May_28_2029,
,,0.62,"[6.75, 0]",/sounds/legit/right100.wav,,,,,1,7,42,19,,,,,,,,,,,,,,,right,0.451583862305,,,,,participant15,24,59.9523731929,Male,trial,2017_May_28_2029,
,,0.36,"[0, 0]",/sounds/legit/equal.wav,,,,,1,8,43,2,,,,,,,,,,,,,,,left,1.08569097519,,,,,participant15,24,59.9523731929,Male,trial,2017_May_28_2029,
,,0.36,"[-4.5, 0]",/sounds/legit/left70.wav,,,,,1,9,44,27,,,,,,,,,,,,,,,left,1.06819295883,,,,,participant15,24,59.9523731929,Male,trial,2017_May_28_2029,
,,0.1,"[6.75, 0]",/sounds/legit/right100.wav,,,,,1,10,45,15,,,,,,,,,,,,,,,left,0.268971920013,,,,,participant15,24,59.9523731929,Male,trial,2017_May_28_2029,
,,0.23,"[-4.5, 0]",/sounds/legit/left70.wav,,,,,1,11,46,26,,,,,,,,,,,,,,,left,0.301692008972,,,,,participant15,24,59.9523731929,Male,trial,2017_May_28_2029,
,,0.49,"[0, 0]",/sounds/legit/equal.wav,,,,,1,12,47,3,,,,,,,,,,,,,,,left,0.401601791382,,,,,participant15,24,59.9523731929,Male,trial,2017_May_28_2029,
,,0.49,"[-6.75, 0]",/sounds/legit/left100.wav,,,,,1,13,48,33,,,,,,,,,,,,,,,left,0.93571805954,,,,,participant15,24,59.9523731929,Male,trial,2017_May_28_2029,
,,0.1,"[0, 0]",/sounds/legit/equal.wav,,,,,1,14,49,0,,,,,,,,,,,,,,,left,0.302006959915,,,,,participant15,24,59.9523731929,Male,trial,2017_May_28_2029,
,,0.1,"[2.25, 0]",/sounds/legit/right35.wav,,,,,1,15,50,5,,,,,,,,,,,,,,,right,0.369246959686,,,,,participant15,24,59.9523731929,Male,trial,2017_May_28_2029,
,,0.23,"[-2.25, 0]",/sounds/legit/left35.wav,,,,,1,16,51,21,,,,,,,,,,,,,,,left,0.33309006691,,,,,participant15,24,59.9523731929,Male,trial,2017_May_28_2029,
,,0.1,"[4.5, 0]",/sounds/legit/right70.wav,,,,,1,17,52,10,,,,,,,,,,,,,,,right,0.368609189987,,,,,participant15,24,59.9523731929,Male,trial,2017_May_28_2029,
,,0.62,"[4.5, 0]",/sounds/legit/right70.wav,,,,,1,18,53,14,,,,,,,,,,,,,,,right,0.318645954132,,,,,participant15,24,59.9523731929,Male,trial,2017_May_28_2029,
,,0.36,"[-2.25, 0]",/sounds/legit/left35.wav,,,,,1,19,54,22,,,,,,,,,,,,,,,left,0.335245132446,,,,,participant15,24,59.9523731929,Male,trial,2017_May_28_2029,
,,0.62,"[-6.75, 0]",/sounds/legit/left100.wav,,,,,1,20,55,34,,,,,,,,,,,,,,,left,0.284691095352,,,,,participant15,24,59.9523731929,Male,trial,2017_May_28_2029,
,,0.62,"[-2.25, 0]",/sounds/legit/left35.wav,,,,,1,21,56,24,,,,,,,,,,,,,,,left,0.285802125931,,,,,participant15,24,59.9523731929,Male,trial,2017_May_28_2029,
,,0.36,"[4.5, 0]",/sounds/legit/right70.wav,,,,,1,22,57,12,,,,,,,,,,,,,,,right,0.052099943161,,,,,participant15,24,59.9523731929,Male,trial,2017_May_28_2029,
,,0.49,"[-4.5, 0]",/sounds/legit/left70.wav,,,,,1,23,58,28,,,,,,,,,,,,,,,left,0.335522890091,,,,,participant15,24,59.9523731929,Male,trial,2017_May_28_2029,
,,0.49,"[-2.25, 0]",/sounds/legit/left35.wav,,,,,1,24,59,23,,,,,,,,,,,,,,,left,58.4155409336,,,,,participant15,24,59.9523731929,Male,trial,2017_May_28_2029,
,,0.36,"[2.25, 0]",/sounds/legit/right35.wav,,,,,1,25,60,7,,,,,,,,,,,,,,,right,0.533610105515,,,,,participant15,24,59.9523731929,Male,trial,2017_May_28_2029,
,,0.23,"[4.5, 0]",/sounds/legit/right70.wav,,,,,1,26,61,11,,,,,,,,,,,,,,,right,0.0190389156342,,,,,participant15,24,59.9523731929,Male,trial,2017_May_28_2029,
,,0.23,"[2.25, 0]",/sounds/legit/right35.wav,,,,,1,27,62,6,,,,,,,,,,,,,,,right,0.268661022186,,,,,participant15,24,59.9523731929,Male,trial,2017_May_28_2029,
,,0.49,"[2.25, 0]",/sounds/legit/right35.wav,,,,,1,28,63,8,,,,,,,,,,,,,,,right,2.58665084839,,,,,participant15,24,59.9523731929,Male,trial,2017_May_28_2029,
,,0.62,"[2.25, 0]",/sounds/legit/right35.wav,,,,,1,29,64,9,,,,,,,,,,,,,,,right,0.48502612114,,,,,participant15,24,59.9523731929,Male,trial,2017_May_28_2029,
,,0.36,"[-6.75, 0]",/sounds/legit/left100.wav,,,,,1,30,65,32,,,,,,,,,,,,,,,left,0.336152076721,,,,,participant15,24,59.9523731929,Male,trial,2017_May_28_2029,
,,0.62,"[-4.5, 0]",/sounds/legit/left70.wav,,,,,1,31,66,29,,,,,,,,,,,,,,,left,0.284808158875,,,,,participant15,24,59.9523731929,Male,trial,2017_May_28_2029,
,,0.49,"[6.75, 0]",/sounds/legit/right100.wav,,,,,1,32,67,18,,,,,,,,,,,,,,,right,0.651787996292,,,,,participant15,24,59.9523731929,Male,trial,2017_May_28_2029,
,,0.49,"[4.5, 0]",/sounds/legit/right70.wav,,,,,1,33,68,13,,,,,,,,,,,,,,,right,0.452245950699,,,,,participant15,24,59.9523731929,Male,trial,2017_May_28_2029,
,,0.23,"[6.75, 0]",/sounds/legit/right100.wav,,,,,1,34,69,16,,,,,,,,,,,,,,,right,0.434909105301,,,,,participant15,24,59.9523731929,Male,trial,2017_May_28_2029,
,,0.62,"[-4.5, 0]",/sounds/legit/left70.wav,,,,,2,0,70,29,,,,,,,,,,,,,,,left,0.502071142197,,,,,participant15,24,59.9523731929,Male,trial,2017_May_28_2029,
,,0.36,"[0, 0]",/sounds/legit/equal.wav,,,,,2,1,71,2,,,,,,,,,,,,,,,left,0.218592882156,,,,,participant15,24,59.9523731929,Male,trial,2017_May_28_2029,
,,0.1,"[-6.75, 0]",/sounds/legit/left100.wav,,,,,2,2,72,30,,,,,,,,,,,,,,,left,0.318243980408,,,,,participant15,24,59.9523731929,Male,trial,2017_May_28_2029,
,,0.49,"[-2.25, 0]",/sounds/legit/left35.wav,,,,,2,3,73,23,,,,,,,,,,,,,,,left,0.368012905121,,,,,participant15,24,59.9523731929,Male,trial,2017_May_28_2029,
,,0.36,"[-6.75, 0]",/sounds/legit/left100.wav,,,,,2,4,74,32,,,,,,,,,,,,,,,left,0.301582813263,,,,,participant15,24,59.9523731929,Male,trial,2017_May_28_2029,
,,0.23,"[-6.75, 0]",/sounds/legit/left100.wav,,,,,2,5,75,31,,,,,,,,,,,,,,,left,0.319103002548,,,,,participant15,24,59.9523731929,Male,trial,2017_May_28_2029,
,,0.49,"[-6.75, 0]",/sounds/legit/left100.wav,,,,,2,6,76,33,,,,,,,,,,,,,,,left,0.266939878464,,,,,participant15,24,59.9523731929,Male,trial,2017_May_28_2029,
,,0.49,"[6.75, 0]",/sounds/legit/right100.wav,,,,,2,7,77,18,,,,,,,,,,,,,,,right,0.335108995438,,,,,participant15,24,59.9523731929,Male,trial,2017_May_28_2029,
,,0.62,"[6.75, 0]",/sounds/legit/right100.wav,,,,,2,8,78,19,,,,,,,,,,,,,,,right,0.402098178864,,,,,participant15,24,59.9523731929,Male,trial,2017_May_28_2029,
,,0.1,"[6.75, 0]",/sounds/legit/right100.wav,,,,,2,9,79,15,,,,,,,,,,,,,,,right,0.317947864532,,,,,participant15,24,59.9523731929,Male,trial,2017_May_28_2029,
,,0.23,"[-2.25, 0]",/sounds/legit/left35.wav,,,,,2,10,80,21,,,,,,,,,,,,,,,left,0.435194015503,,,,,participant15,24,59.9523731929,Male,trial,2017_May_28_2029,
,,0.62,"[2.25, 0]",/sounds/legit/right35.wav,,,,,2,11,81,9,,,,,,,,,,,,,,,right,1.28532981873,,,,,participant15,24,59.9523731929,Male,trial,2017_May_28_2029,
,,0.62,"[4.5, 0]",/sounds/legit/right70.wav,,,,,2,12,82,14,,,,,,,,,,,,,,,right,0.351617097855,,,,,participant15,24,59.9523731929,Male,trial,2017_May_28_2029,
,,0.1,"[-4.5, 0]",/sounds/legit/left70.wav,,,,,2,13,83,25,,,,,,,,,,,,,,,left,0.368236780167,,,,,participant15,24,59.9523731929,Male,trial,2017_May_28_2029,
,,0.49,"[-4.5, 0]",/sounds/legit/left70.wav,,,,,2,14,84,28,,,,,,,,,,,,,,,left,0.319442987442,,,,,participant15,24,59.9523731929,Male,trial,2017_May_28_2029,
,,0.23,"[6.75, 0]",/sounds/legit/right100.wav,,,,,2,15,85,16,,,,,,,,,,,,,,,right,0.301723003387,,,,,participant15,24,59.9523731929,Male,trial,2017_May_28_2029,
,,0.23,"[0, 0]",/sounds/legit/equal.wav,,,,,2,16,86,1,,,,,,,,,,,,,,,right,0.168544054031,,,,,participant15,24,59.9523731929,Male,trial,2017_May_28_2029,
,,0.23,"[-4.5, 0]",/sounds/legit/left70.wav,,,,,2,17,87,26,,,,,,,,,,,,,,,left,0.234408140182,,,,,participant15,24,59.9523731929,Male,trial,2017_May_28_2029,
,,0.62,"[0, 0]",/sounds/legit/equal.wav,,,,,2,18,88,4,,,,,,,,,,,,,,,left,0.517916917801,,,,,participant15,24,59.9523731929,Male,trial,2017_May_28_2029,
,,0.36,"[6.75, 0]",/sounds/legit/right100.wav,,,,,2,19,89,17,,,,,,,,,,,,,,,right,0.318557977676,,,,,participant15,24,59.9523731929,Male,trial,2017_May_28_2029,
,,0.23,"[4.5, 0]",/sounds/legit/right70.wav,,,,,2,20,90,11,,,,,,,,,,,,,,,right,0.31759095192,,,,,participant15,24,59.9523731929,Male,trial,2017_May_28_2029,
,,0.1,"[2.25, 0]",/sounds/legit/right35.wav,,,,,2,21,91,5,,,,,,,,,,,,,,,right,0.251775026321,,,,,participant15,24,59.9523731929,Male,trial,2017_May_28_2029,
,,0.1,"[0, 0]",/sounds/legit/equal.wav,,,,,2,22,92,0,,,,,,,,,,,,,,,right,0.151645898819,,,,,participant15,24,59.9523731929,Male,trial,2017_May_28_2029,
,,0.23,"[2.25, 0]",/sounds/legit/right35.wav,,,,,2,23,93,6,,,,,,,,,,,,,,,right,0.368076086044,,,,,participant15,24,59.9523731929,Male,trial,2017_May_28_2029,
,,0.49,"[4.5, 0]",/sounds/legit/right70.wav,,,,,2,24,94,13,,,,,,,,,,,,,,,right,0.284149885178,,,,,participant15,24,59.9523731929,Male,trial,2017_May_28_2029,
,,0.62,"[-2.25, 0]",/sounds/legit/left35.wav,,,,,2,25,95,24,,,,,,,,,,,,,,,right,1.03497409821,,,,,participant15,24,59.9523731929,Male,trial,2017_May_28_2029,
,,0.36,"[-4.5, 0]",/sounds/legit/left70.wav,,,,,2,26,96,27,,,,,,,,,,,,,,,left,0.2680580616,,,,,participant15,24,59.9523731929,Male,trial,2017_May_28_2029,
,,0.36,"[4.5, 0]",/sounds/legit/right70.wav,,,,,2,27,97,12,,,,,,,,,,,,,,,right,0.269310951233,,,,,participant15,24,59.9523731929,Male,trial,2017_May_28_2029,
,,0.49,"[0, 0]",/sounds/legit/equal.wav,,,,,2,28,98,3,,,,,,,,,,,,,,,left,0.451600790024,,,,,participant15,24,59.9523731929,Male,trial,2017_May_28_2029,
,,0.1,"[4.5, 0]",/sounds/legit/right70.wav,,,,,2,29,99,10,,,,,,,,,,,,,,,right,0.33513712883,,,,,participant15,24,59.9523731929,Male,trial,2017_May_28_2029,
,,0.49,"[2.25, 0]",/sounds/legit/right35.wav,,,,,2,30,100,8,,,,,,,,,,,,,,,right,0.319121837616,,,,,participant15,24,59.9523731929,Male,trial,2017_May_28_2029,
,,0.36,"[2.25, 0]",/sounds/legit/right35.wav,,,,,2,31,101,7,,,,,,,,,,,,,,,right,0.417960166931,,,,,participant15,24,59.9523731929,Male,trial,2017_May_28_2029,
,,0.36,"[-2.25, 0]",/sounds/legit/left35.wav,,,,,2,32,102,22,,,,,,,,,,,,,,,left,0.21893286705,,,,,participant15,24,59.9523731929,Male,trial,2017_May_28_2029,
,,0.62,"[-6.75, 0]",/sounds/legit/left100.wav,,,,,2,33,103,34,,,,,,,,,,,,,,,left,0.33543920517,,,,,participant15,24,59.9523731929,Male,trial,2017_May_28_2029,
,,0.1,"[-2.25, 0]",/sounds/legit/left35.wav,,,,,2,34,104,20,,,,,,,,,,,,,,,left,0.318318128586,,,,,participant15,24,59.9523731929,Male,trial,2017_May_28_2029,
,,0.62,"[-6.75, 0]",/sounds/legit/left100.wav,,,,,3,0,105,34,,,,,,,,,,,,,,,left,0.467658996582,,,,,participant15,24,59.9523731929,Male,trial,2017_May_28_2029,
,,0.23,"[6.75, 0]",/sounds/legit/right100.wav,,,,,3,1,106,16,,,,,,,,,,,,,,,right,0.28497004509,,,,,participant15,24,59.9523731929,Male,trial,2017_May_28_2029,
,,0.36,"[6.75, 0]",/sounds/legit/right100.wav,,,,,3,2,107,17,,,,,,,,,,,,,,,right,0.335510015488,,,,,participant15,24,59.9523731929,Male,trial,2017_May_28_2029,
,,0.1,"[4.5, 0]",/sounds/legit/right70.wav,,,,,3,3,108,10,,,,,,,,,,,,,,,right,0.368317842484,,,,,participant15,24,59.9523731929,Male,trial,2017_May_28_2029,
,,0.23,"[4.5, 0]",/sounds/legit/right70.wav,,,,,3,4,109,11,,,,,,,,,,,,,,,right,0.252418041229,,,,,participant15,24,59.9523731929,Male,trial,2017_May_28_2029,
,,0.49,"[-2.25, 0]",/sounds/legit/left35.wav,,,,,3,5,110,23,,,,,,,,,,,,,,,left,0.368893146515,,,,,participant15,24,59.9523731929,Male,trial,2017_May_28_2029,
,,0.1,"[-4.5, 0]",/sounds/legit/left70.wav,,,,,3,6,111,25,,,,,,,,,,,,,,,left,0.252071857452,,,,,participant15,24,59.9523731929,Male,trial,2017_May_28_2029,
,,0.36,"[-2.25, 0]",/sounds/legit/left35.wav,,,,,3,7,112,22,,,,,,,,,,,,,,,left,0.235238075256,,,,,participant15,24,59.9523731929,Male,trial,2017_May_28_2029,
,,0.49,"[0, 0]",/sounds/legit/equal.wav,,,,,3,8,113,3,,,,,,,,,,,,,,,right,0.884555101395,,,,,participant15,24,59.9523731929,Male,trial,2017_May_28_2029,
,,0.23,"[0, 0]",/sounds/legit/equal.wav,,,,,3,9,114,1,,,,,,,,,,,,,,,left,0.216952085495,,,,,participant15,24,59.9523731929,Male,trial,2017_May_28_2029,
,,0.49,"[2.25, 0]",/sounds/legit/right35.wav,,,,,3,10,115,8,,,,,,,,,,,,,,,right,0.201730012894,,,,,participant15,24,59.9523731929,Male,trial,2017_May_28_2029,
,,0.62,"[0, 0]",/sounds/legit/equal.wav,,,,,3,11,116,4,,,,,,,,,,,,,,,left,0.117665052414,,,,,participant15,24,59.9523731929,Male,trial,2017_May_28_2029,
,,0.49,"[4.5, 0]",/sounds/legit/right70.wav,,,,,3,12,117,13,,,,,,,,,,,,,,,right,0.234740018845,,,,,participant15,24,59.9523731929,Male,trial,2017_May_28_2029,
,,0.62,"[4.5, 0]",/sounds/legit/right70.wav,,,,,3,13,118,14,,,,,,,,,,,,,,,right,0.26917719841,,,,,participant15,24,59.9523731929,Male,trial,2017_May_28_2029,
,,0.36,"[-4.5, 0]",/sounds/legit/left70.wav,,,,,3,14,119,27,,,,,,,,,,,,,,,left,0.285524129868,,,,,participant15,24,59.9523731929,Male,trial,2017_May_28_2029,
,,0.49,"[-4.5, 0]",/sounds/legit/left70.wav,,,,,3,15,120,28,,,,,,,,,,,,,,,left,0.101644992828,,,,,participant15,24,59.9523731929,Male,trial,2017_May_28_2029,
,,0.62,"[2.25, 0]",/sounds/legit/right35.wav,,,,,3,16,121,9,,,,,,,,,,,,,,,right,0.318256139755,,,,,participant15,24,59.9523731929,Male,trial,2017_May_28_2029,
,,0.62,"[-4.5, 0]",/sounds/legit/left70.wav,,,,,3,17,122,29,,,,,,,,,,,,,,,left,0.201775074005,,,,,participant15,24,59.9523731929,Male,trial,2017_May_28_2029,
,,0.62,"[-2.25, 0]",/sounds/legit/left35.wav,,,,,3,18,123,24,,,,,,,,,,,,,,,left,0.368847131729,,,,,participant15,24,59.9523731929,Male,trial,2017_May_28_2029,
,,0.36,"[0, 0]",/sounds/legit/equal.wav,,,,,3,19,124,2,,,,,,,,,,,,,,,left,0.368571996689,,,,,participant15,24,59.9523731929,Male,trial,2017_May_28_2029,
,,0.23,"[-6.75, 0]",/sounds/legit/left100.wav,,,,,3,20,125,31,,,,,,,,,,,,,,,left,0.301906108856,,,,,participant15,24,59.9523731929,Male,trial,2017_May_28_2029,
,,0.49,"[-6.75, 0]",/sounds/legit/left100.wav,,,,,3,21,126,33,,,,,,,,,,,,,,,left,1.30322384834,,,,,participant15,24,59.9523731929,Male,trial,2017_May_28_2029,
,,0.1,"[-2.25, 0]",/sounds/legit/left35.wav,,,,,3,22,127,20,,,,,,,,,,,,,,,left,0.252447128296,,,,,participant15,24,59.9523731929,Male,trial,2017_May_28_2029,
,,0.62,"[6.75, 0]",/sounds/legit/right100.wav,,,,,3,23,128,19,,,,,,,,,,,,,,,right,0.217813968658,,,,,participant15,24,59.9523731929,Male,trial,2017_May_28_2029,
,,0.36,"[4.5, 0]",/sounds/legit/right70.wav,,,,,3,24,129,12,,,,,,,,,,,,,,,right,0.168017148972,,,,,participant15,24,59.9523731929,Male,trial,2017_May_28_2029,
,,0.49,"[6.75, 0]",/sounds/legit/right100.wav,,,,,3,25,130,18,,,,,,,,,,,,,,,right,0.235142946243,,,,,participant15,24,59.9523731929,Male,trial,2017_May_28_2029,
,,0.1,"[-6.75, 0]",/sounds/legit/left100.wav,,,,,3,26,131,30,,,,,,,,,,,,,,,left,0.502463817596,,,,,participant15,24,59.9523731929,Male,trial,2017_May_28_2029,
,,0.1,"[0, 0]",/sounds/legit/equal.wav,,,,,3,27,132,0,,,,,,,,,,,,,,,left,0.284920930862,,,,,participant15,24,59.9523731929,Male,trial,2017_May_28_2029,
,,0.1,"[2.25, 0]",/sounds/legit/right35.wav,,,,,3,28,133,5,,,,,,,,,,,,,,,right,0.0361371040344,,,,,participant15,24,59.9523731929,Male,trial,2017_May_28_2029,
,,0.23,"[2.25, 0]",/sounds/legit/right35.wav,,,,,3,29,134,6,,,,,,,,,,,,,,,right,0.619037151337,,,,,participant15,24,59.9523731929,Male,trial,2017_May_28_2029,
,,0.36,"[2.25, 0]",/sounds/legit/right35.wav,,,,,3,30,135,7,,,,,,,,,,,,,,,right,0.0187609195709,,,,,participant15,24,59.9523731929,Male,trial,2017_May_28_2029,
,,0.1,"[6.75, 0]",/sounds/legit/right100.wav,,,,,3,31,136,15,,,,,,,,,,,,,,,right,0.285161018372,,,,,participant15,24,59.9523731929,Male,trial,2017_May_28_2029,
,,0.36,"[-6.75, 0]",/sounds/legit/left100.wav,,,,,3,32,137,32,,,,,,,,,,,,,,,left,0.25001502037,,,,,participant15,24,59.9523731929,Male,trial,2017_May_28_2029,
,,0.23,"[-4.5, 0]",/sounds/legit/left70.wav,,,,,3,33,138,26,,,,,,,,,,,,,,,left,0.319347143173,,,,,participant15,24,59.9523731929,Male,trial,2017_May_28_2029,
,,0.23,"[-2.25, 0]",/sounds/legit/left35.wav,,,,,3,34,139,21,,,,,,,,,,,,,,,left,0.302081108093,,,,,participant15,24,59.9523731929,Male,trial,2017_May_28_2029,
,,0.49,"[-6.75, 0]",/sounds/legit/left100.wav,,,,,4,0,140,33,,,,,,,,,,,,,,,left,0.317909955978,,,,,participant15,24,59.9523731929,Male,trial,2017_May_28_2029,
,,0.49,"[2.25, 0]",/sounds/legit/right35.wav,,,,,4,1,141,8,,,,,,,,,,,,,,,right,0.585146903992,,,,,participant15,24,59.9523731929,Male,trial,2017_May_28_2029,
,,0.23,"[-2.25, 0]",/sounds/legit/left35.wav,,,,,4,2,142,21,,,,,,,,,,,,,,,left,0.368798017502,,,,,participant15,24,59.9523731929,Male,trial,2017_May_28_2029,
,,0.62,"[0, 0]",/sounds/legit/equal.wav,,,,,4,3,143,4,,,,,,,,,,,,,,,left,0.518121004105,,,,,participant15,24,59.9523731929,Male,trial,2017_May_28_2029,
,,0.62,"[-4.5, 0]",/sounds/legit/left70.wav,,,,,4,4,144,29,,,,,,,,,,,,,,,left,0.151546001434,,,,,participant15,24,59.9523731929,Male,trial,2017_May_28_2029,
,,0.49,"[0, 0]",/sounds/legit/equal.wav,,,,,4,5,145,3,,,,,,,,,,,,,,,left,0.335546016693,,,,,participant15,24,59.9523731929,Male,trial,2017_May_28_2029,
,,0.23,"[-4.5, 0]",/sounds/legit/left70.wav,,,,,4,6,146,26,,,,,,,,,,,,,,,left,0.301110029221,,,,,participant15,24,59.9523731929,Male,trial,2017_May_28_2029,
,,0.36,"[-4.5, 0]",/sounds/legit/left70.wav,,,,,4,7,147,27,,,,,,,,,,,,,,,left,0.234992027283,,,,,participant15,24,59.9523731929,Male,trial,2017_May_28_2029,
,,0.1,"[-2.25, 0]",/sounds/legit/left35.wav,,,,,4,8,148,20,,,,,,,,,,,,,,,left,0.285902023315,,,,,participant15,24,59.9523731929,Male,trial,2017_May_28_2029,
,,0.62,"[2.25, 0]",/sounds/legit/right35.wav,,,,,4,9,149,9,,,,,,,,,,,,,,,right,0.502199888229,,,,,participant15,24,59.9523731929,Male,trial,2017_May_28_2029,
,,0.36,"[6.75, 0]",/sounds/legit/right100.wav,,,,,4,10,150,17,,,,,,,,,,,,,,,right,0.301685094833,,,,,participant15,24,59.9523731929,Male,trial,2017_May_28_2029,
,,0.36,"[4.5, 0]",/sounds/legit/right70.wav,,,,,4,11,151,12,,,,,,,,,,,,,,,right,18.9931488037,,,,,participant15,24,59.9523731929,Male,trial,2017_May_28_2029,
,,0.36,"[2.25, 0]",/sounds/legit/right35.wav,,,,,4,12,152,7,,,,,,,,,,,,,,,right,0.401141166687,,,,,participant15,24,59.9523731929,Male,trial,2017_May_28_2029,
,,0.1,"[-4.5, 0]",/sounds/legit/left70.wav,,,,,4,13,153,25,,,,,,,,,,,,,,,left,0.268018007278,,,,,participant15,24,59.9523731929,Male,trial,2017_May_28_2029,
,,0.62,"[6.75, 0]",/sounds/legit/right100.wav,,,,,4,14,154,19,,,,,,,,,,,,,,,right,0.251420021057,,,,,participant15,24,59.9523731929,Male,trial,2017_May_28_2029,
,,0.23,"[0, 0]",/sounds/legit/equal.wav,,,,,4,15,155,1,,,,,,,,,,,,,,,right,1.20307993889,,,,,participant15,24,59.9523731929,Male,trial,2017_May_28_2029,
,,0.62,"[-6.75, 0]",/sounds/legit/left100.wav,,,,,4,16,156,34,,,,,,,,,,,,,,,left,0.252176046371,,,,,participant15,24,59.9523731929,Male,trial,2017_May_28_2029,
,,0.49,"[4.5, 0]",/sounds/legit/right70.wav,,,,,4,17,157,13,,,,,,,,,,,,,,,right,0.235872030258,,,,,participant15,24,59.9523731929,Male,trial,2017_May_28_2029,
,,0.1,"[4.5, 0]",/sounds/legit/right70.wav,,,,,4,18,158,10,,,,,,,,,,,,,,,right,0.351171970367,,,,,participant15,24,59.9523731929,Male,trial,2017_May_28_2029,
,,0.23,"[4.5, 0]",/sounds/legit/right70.wav,,,,,4,19,159,11,,,,,,,,,,,,,,,right,0.25114607811,,,,,participant15,24,59.9523731929,Male,trial,2017_May_28_2029,
,,0.62,"[-2.25, 0]",/sounds/legit/left35.wav,,,,,4,20,160,24,,,,,,,,,,,,,,,left,0.218142986298,,,,,participant15,24,59.9523731929,Male,trial,2017_May_28_2029,
,,0.1,"[-6.75, 0]",/sounds/legit/left100.wav,,,,,4,21,161,30,,,,,,,,,,,,,,,left,0.24998998642,,,,,participant15,24,59.9523731929,Male,trial,2017_May_28_2029,
,,0.36,"[-6.75, 0]",/sounds/legit/left100.wav,,,,,4,22,162,32,,,,,,,,,,,,,,,left,0.285355091095,,,,,participant15,24,59.9523731929,Male,trial,2017_May_28_2029,
,,0.1,"[6.75, 0]",/sounds/legit/right100.wav,,,,,4,23,163,15,,,,,,,,,,,,,,,right,0.168231964111,,,,,participant15,24,59.9523731929,Male,trial,2017_May_28_2029,
,,0.23,"[6.75, 0]",/sounds/legit/right100.wav,,,,,4,24,164,16,,,,,,,,,,,,,,,right,0.169052839279,,,,,participant15,24,59.9523731929,Male,trial,2017_May_28_2029,
,,0.49,"[-4.5, 0]",/sounds/legit/left70.wav,,,,,4,25,165,28,,,,,,,,,,,,,,,left,0.285807132721,,,,,participant15,24,59.9523731929,Male,trial,2017_May_28_2029,
,,0.1,"[0, 0]",/sounds/legit/equal.wav,,,,,4,26,166,0,,,,,,,,,,,,,,,left,0.301383972168,,,,,participant15,24,59.9523731929,Male,trial,2017_May_28_2029,
,,0.49,"[-2.25, 0]",/sounds/legit/left35.wav,,,,,4,27,167,23,,,,,,,,,,,,,,,left,0.0183289051056,,,,,participant15,24,59.9523731929,Male,trial,2017_May_28_2029,
,,0.36,"[-2.25, 0]",/sounds/legit/left35.wav,,,,,4,28,168,22,,,,,,,,,,,,,,,left,0.100985050201,,,,,participant15,24,59.9523731929,Male,trial,2017_May_28_2029,
,,0.36,"[0, 0]",/sounds/legit/equal.wav,,,,,4,29,169,2,,,,,,,,,,,,,,,left,0.351624965668,,,,,participant15,24,59.9523731929,Male,trial,2017_May_28_2029,
,,0.49,"[6.75, 0]",/sounds/legit/right100.wav,,,,,4,30,170,18,,,,,,,,,,,,,,,right,0.284914970398,,,,,participant15,24,59.9523731929,Male,trial,2017_May_28_2029,
,,0.1,"[2.25, 0]",/sounds/legit/right35.wav,,,,,4,31,171,5,,,,,,,,,,,,,,,right,0.269002914429,,,,,participant15,24,59.9523731929,Male,trial,2017_May_28_2029,
,,0.23,"[-6.75, 0]",/sounds/legit/left100.wav,,,,,4,32,172,31,,,,,,,,,,,,,,,left,0.235455036163,,,,,participant15,24,59.9523731929,Male,trial,2017_May_28_2029,
,,0.62,"[4.5, 0]",/sounds/legit/right70.wav,,,,,4,33,173,14,,,,,,,,,,,,,,,right,0.618571043015,,,,,participant15,24,59.9523731929,Male,trial,2017_May_28_2029,
,,0.23,"[2.25, 0]",/sounds/legit/right35.wav,,,,,4,34,174,6,,,,,,,,,,,,,,,right,0.268124103546,,,,,participant15,24,59.9523731929,Male,trial,2017_May_28_2029,
,,0.62,"[-4.5, 0]",/sounds/legit/left70.wav,,,,,5,0,175,29,,,,,,,,,,,,,,,left,0.0171639919281,,,,,participant15,24,59.9523731929,Male,trial,2017_May_28_2029,
,,0.49,"[4.5, 0]",/sounds/legit/right70.wav,,,,,5,1,176,13,,,,,,,,,,,,,,,right,0.468765974045,,,,,participant15,24,59.9523731929,Male,trial,2017_May_28_2029,
,,0.49,"[6.75, 0]",/sounds/legit/right100.wav,,,,,5,2,177,18,,,,,,,,,,,,,,,right,0.518332958221,,,,,participant15,24,59.9523731929,Male,trial,2017_May_28_2029,
,,0.62,"[0, 0]",/sounds/legit/equal.wav,,,,,5,3,178,4,,,,,,,,,,,,,,,left,0.334131002426,,,,,participant15,24,59.9523731929,Male,trial,2017_May_28_2029,
,,0.36,"[-6.75, 0]",/sounds/legit/left100.wav,,,,,5,4,179,32,,,,,,,,,,,,,,,left,0.168802022934,,,,,participant15,24,59.9523731929,Male,trial,2017_May_28_2029,
,,0.49,"[-6.75, 0]",/sounds/legit/left100.wav,,,,,5,5,180,33,,,,,,,,,,,,,,,left,0.502588033676,,,,,participant15,24,59.9523731929,Male,trial,2017_May_28_2029,
,,0.1,"[0, 0]",/sounds/legit/equal.wav,,,,,5,6,181,0,,,,,,,,,,,,,,,left,0.234606981277,,,,,participant15,24,59.9523731929,Male,trial,2017_May_28_2029,
,,0.1,"[-6.75, 0]",/sounds/legit/left100.wav,,,,,5,7,182,30,,,,,,,,,,,,,,,left,0.46791100502,,,,,participant15,24,59.9523731929,Male,trial,2017_May_28_2029,
,,0.49,"[-4.5, 0]",/sounds/legit/left70.wav,,,,,5,8,183,28,,,,,,,,,,,,,,,left,0.301901102066,,,,,participant15,24,59.9523731929,Male,trial,2017_May_28_2029,
,,0.1,"[2.25, 0]",/sounds/legit/right35.wav,,,,,5,9,184,5,,,,,,,,,,,,,,,right,0.0183899402618,,,,,participant15,24,59.9523731929,Male,trial,2017_May_28_2029,
,,0.23,"[0, 0]",/sounds/legit/equal.wav,,,,,5,10,185,1,,,,,,,,,,,,,,,left,0.484747171402,,,,,participant15,24,59.9523731929,Male,trial,2017_May_28_2029,
,,0.49,"[0, 0]",/sounds/legit/equal.wav,,,,,5,11,186,3,,,,,,,,,,,,,,,left,0.235294103622,,,,,participant15,24,59.9523731929,Male,trial,2017_May_28_2029,
,,0.62,"[-2.25, 0]",/sounds/legit/left35.wav,,,,,5,12,187,24,,,,,,,,,,,,,,,left,0.169110059738,,,,,participant15,24,59.9523731929,Male,trial,2017_May_28_2029,
,,0.62,"[4.5, 0]",/sounds/legit/right70.wav,,,,,5,13,188,14,,,,,,,,,,,,,,,right,0.285807132721,,,,,participant15,24,59.9523731929,Male,trial,2017_May_28_2029,
,,0.36,"[6.75, 0]",/sounds/legit/right100.wav,,,,,5,14,189,17,,,,,,,,,,,,,,,right,0.0520491600037,,,,,participant15,24,59.9523731929,Male,trial,2017_May_28_2029,
,,0.49,"[-2.25, 0]",/sounds/legit/left35.wav,,,,,5,15,190,23,,,,,,,,,,,,,,,left,0.369364023209,,,,,participant15,24,59.9523731929,Male,trial,2017_May_28_2029,
,,0.62,"[6.75, 0]",/sounds/legit/right100.wav,,,,,5,16,191,19,,,,,,,,,,,,,,,right,0.385861158371,,,,,participant15,24,59.9523731929,Male,trial,2017_May_28_2029,
,,0.23,"[-6.75, 0]",/sounds/legit/left100.wav,,,,,5,17,192,31,,,,,,,,,,,,,,,left,0.335515022278,,,,,participant15,24,59.9523731929,Male,trial,2017_May_28_2029,
,,0.23,"[-2.25, 0]",/sounds/legit/left35.wav,,,,,5,18,193,21,,,,,,,,,,,,,,,left,0.334239006042,,,,,participant15,24,59.9523731929,Male,trial,2017_May_28_2029,
,,0.1,"[4.5, 0]",/sounds/legit/right70.wav,,,,,5,19,194,10,,,,,,,,,,,,,,,right,0.268283843994,,,,,participant15,24,59.9523731929,Male,trial,2017_May_28_2029,
,,0.1,"[-2.25, 0]",/sounds/legit/left35.wav,,,,,5,20,195,20,,,,,,,,,,,,,,,left,0.268018960953,,,,,participant15,24,59.9523731929,Male,trial,2017_May_28_2029,
,,0.23,"[-4.5, 0]",/sounds/legit/left70.wav,,,,,5,21,196,26,,,,,,,,,,,,,,,left,0.251224040985,,,,,participant15,24,59.9523731929,Male,trial,2017_May_28_2029,
,,0.36,"[-4.5, 0]",/sounds/legit/left70.wav,,,,,5,22,197,27,,,,,,,,,,,,,,,left,0.134968042374,,,,,participant15,24,59.9523731929,Male,trial,2017_May_28_2029,
,,0.23,"[6.75, 0]",/sounds/legit/right100.wav,,,,,5,23,198,16,,,,,,,,,,,,,,,right,0.135120868683,,,,,participant15,24,59.9523731929,Male,trial,2017_May_28_2029,
,,0.36,"[0, 0]",/sounds/legit/equal.wav,,,,,5,24,199,2,,,,,,,,,,,,,,,right,0.601757049561,,,,,participant15,24,59.9523731929,Male,trial,2017_May_28_2029,
,,0.1,"[6.75, 0]",/sounds/legit/right100.wav,,,,,5,25,200,15,,,,,,,,,,,,,,,right,0.301893949509,,,,,participant15,24,59.9523731929,Male,trial,2017_May_28_2029,
,,0.62,"[2.25, 0]",/sounds/legit/right35.wav,,,,,5,26,201,9,,,,,,,,,,,,,,,right,0.0352590084076,,,,,participant15,24,59.9523731929,Male,trial,2017_May_28_2029,
,,0.49,"[2.25, 0]",/sounds/legit/right35.wav,,,,,5,27,202,8,,,,,,,,,,,,,,,right,0.285712003708,,,,,participant15,24,59.9523731929,Male,trial,2017_May_28_2029,
,,0.36,"[2.25, 0]",/sounds/legit/right35.wav,,,,,5,28,203,7,,,,,,,,,,,,,,,right,0.285310983658,,,,,participant15,24,59.9523731929,Male,trial,2017_May_28_2029,
,,0.1,"[-4.5, 0]",/sounds/legit/left70.wav,,,,,5,29,204,25,,,,,,,,,,,,,,,left,0.401650905609,,,,,participant15,24,59.9523731929,Male,trial,2017_May_28_2029,
,,0.62,"[-6.75, 0]",/sounds/legit/left100.wav,,,,,5,30,205,34,,,,,,,,,,,,,,,left,0.468673944473,,,,,participant15,24,59.9523731929,Male,trial,2017_May_28_2029,
,,0.36,"[4.5, 0]",/sounds/legit/right70.wav,,,,,5,31,206,12,,,,,,,,,,,,,,,right,0.401832103729,,,,,participant15,24,59.9523731929,Male,trial,2017_May_28_2029,
,,0.23,"[4.5, 0]",/sounds/legit/right70.wav,,,,,5,32,207,11,,,,,,,,,,,,,,,right,0.251275062561,,,,,participant15,24,59.9523731929,Male,trial,2017_May_28_2029,
,,0.36,"[-2.25, 0]",/sounds/legit/left35.wav,,,,,5,33,208,22,,,,,,,,,,,,,,,left,0.317993164062,,,,,participant15,24,59.9523731929,Male,trial,2017_May_28_2029,
,,0.23,"[2.25, 0]",/sounds/legit/right35.wav,,,,,5,34,209,6,,,,,,,,,,,,,,,right,0.402143955231,,,,,participant15,24,59.9523731929,Male,trial,2017_May_28_2029,
,,0.49,"[-4.5, 0]",/sounds/legit/left70.wav,,,,,6,0,210,28,,,,,,,,,,,,,,,left,0.318867921829,,,,,participant15,24,59.9523731929,Male,trial,2017_May_28_2029,
,,0.1,"[-2.25, 0]",/sounds/legit/left35.wav,,,,,6,1,211,20,,,,,,,,,,,,,,,left,0.335249900818,,,,,participant15,24,59.9523731929,Male,trial,2017_May_28_2029,
,,0.23,"[-4.5, 0]",/sounds/legit/left70.wav,,,,,6,2,212,26,,,,,,,,,,,,,,,left,0.434435844421,,,,,participant15,24,59.9523731929,Male,trial,2017_May_28_2029,
,,0.1,"[0, 0]",/sounds/legit/equal.wav,,,,,6,3,213,0,,,,,,,,,,,,,,,left,0.317435026169,,,,,participant15,24,59.9523731929,Male,trial,2017_May_28_2029,
,,0.36,"[0, 0]",/sounds/legit/equal.wav,,,,,6,4,214,2,,,,,,,,,,,,,,,left,0.301414966583,,,,,participant15,24,59.9523731929,Male,trial,2017_May_28_2029,
,,0.62,"[4.5, 0]",/sounds/legit/right70.wav,,,,,6,5,215,14,,,,,,,,,,,,,,,right,0.451642036438,,,,,participant15,24,59.9523731929,Male,trial,2017_May_28_2029,
,,0.49,"[4.5, 0]",/sounds/legit/right70.wav,,,,,6,6,216,13,,,,,,,,,,,,,,,right,0.301279067993,,,,,participant15,24,59.9523731929,Male,trial,2017_May_28_2029,
,,0.1,"[4.5, 0]",/sounds/legit/right70.wav,,,,,6,7,217,10,,,,,,,,,,,,,,,right,0.268914937973,,,,,participant15,24,59.9523731929,Male,trial,2017_May_28_2029,
,,0.62,"[6.75, 0]",/sounds/legit/right100.wav,,,,,6,8,218,19,,,,,,,,,,,,,,,right,0.400959968567,,,,,participant15,24,59.9523731929,Male,trial,2017_May_28_2029,
,,0.36,"[2.25, 0]",/sounds/legit/right35.wav,,,,,6,9,219,7,,,,,,,,,,,,,,,right,0.335542917252,,,,,participant15,24,59.9523731929,Male,trial,2017_May_28_2029,
,,0.36,"[4.5, 0]",/sounds/legit/right70.wav,,,,,6,10,220,12,,,,,,,,,,,,,,,right,0.300272941589,,,,,participant15,24,59.9523731929,Male,trial,2017_May_28_2029,
,,0.1,"[-4.5, 0]",/sounds/legit/left70.wav,,,,,6,11,221,25,,,,,,,,,,,,,,,left,0.302473068237,,,,,participant15,24,59.9523731929,Male,trial,2017_May_28_2029,
,,0.49,"[0, 0]",/sounds/legit/equal.wav,,,,,6,12,222,3,,,,,,,,,,,,,,,left,1.41922593117,,,,,participant15,24,59.9523731929,Male,trial,2017_May_28_2029,
,,0.36,"[-2.25, 0]",/sounds/legit/left35.wav,,,,,6,13,223,22,,,,,,,,,,,,,,,left,0.301596879959,,,,,participant15,24,59.9523731929,Male,trial,2017_May_28_2029,
,,0.62,"[-6.75, 0]",/sounds/legit/left100.wav,,,,,6,14,224,34,,,,,,,,,,,,,,,left,0.283576965332,,,,,participant15,24,59.9523731929,Male,trial,2017_May_28_2029,
,,0.1,"[-6.75, 0]",/sounds/legit/left100.wav,,,,,6,15,225,30,,,,,,,,,,,,,,,left,0.285295009613,,,,,participant15,24,59.9523731929,Male,trial,2017_May_28_2029,
,,0.1,"[2.25, 0]",/sounds/legit/right35.wav,,,,,6,16,226,5,,,,,,,,,,,,,,,right,0.0186150074005,,,,,participant15,24,59.9523731929,Male,trial,2017_May_28_2029,
,,0.23,"[-2.25, 0]",/sounds/legit/left35.wav,,,,,6,17,227,21,,,,,,,,,,,,,,,left,0.184704065323,,,,,participant15,24,59.9523731929,Male,trial,2017_May_28_2029,
,,0.36,"[6.75, 0]",/sounds/legit/right100.wav,,,,,6,18,228,17,,,,,,,,,,,,,,,right,0.30110001564,,,,,participant15,24,59.9523731929,Male,trial,2017_May_28_2029,
,,0.49,"[-2.25, 0]",/sounds/legit/left35.wav,,,,,6,19,229,23,,,,,,,,,,,,,,,left,0.384954929352,,,,,participant15,24,59.9523731929,Male,trial,2017_May_28_2029,
,,0.49,"[2.25, 0]",/sounds/legit/right35.wav,,,,,6,20,230,8,,,,,,,,,,,,,,,right,0.318970918655,,,,,participant15,24,59.9523731929,Male,trial,2017_May_28_2029,
,,0.23,"[6.75, 0]",/sounds/legit/right100.wav,,,,,6,21,231,16,,,,,,,,,,,,,,,right,0.250982046127,,,,,participant15,24,59.9523731929,Male,trial,2017_May_28_2029,
,,0.62,"[-4.5, 0]",/sounds/legit/left70.wav,,,,,6,22,232,29,,,,,,,,,,,,,,,left,0.385318994522,,,,,participant15,24,59.9523731929,Male,trial,2017_May_28_2029,
,,0.23,"[4.5, 0]",/sounds/legit/right70.wav,,,,,6,23,233,11,,,,,,,,,,,,,,,right,0.218677997589,,,,,participant15,24,59.9523731929,Male,trial,2017_May_28_2029,
,,0.1,"[6.75, 0]",/sounds/legit/right100.wav,,,,,6,24,234,15,,,,,,,,,,,,,,,right,0.0350790023804,,,,,participant15,24,59.9523731929,Male,trial,2017_May_28_2029,
,,0.23,"[-6.75, 0]",/sounds/legit/left100.wav,,,,,6,25,235,31,,,,,,,,,,,,,,,left,0.233928918839,,,,,participant15,24,59.9523731929,Male,trial,2017_May_28_2029,
,,0.49,"[6.75, 0]",/sounds/legit/right100.wav,,,,,6,26,236,18,,,,,,,,,,,,,,,right,0.0523409843445,,,,,participant15,24,59.9523731929,Male,trial,2017_May_28_2029,
,,0.62,"[2.25, 0]",/sounds/legit/right35.wav,,,,,6,27,237,9,,,,,,,,,,,,,,,right,0.551311016083,,,,,participant15,24,59.9523731929,Male,trial,2017_May_28_2029,
,,0.36,"[-6.75, 0]",/sounds/legit/left100.wav,,,,,6,28,238,32,,,,,,,,,,,,,,,left,0.28514289856,,,,,participant15,24,59.9523731929,Male,trial,2017_May_28_2029,
,,0.36,"[-4.5, 0]",/sounds/legit/left70.wav,,,,,6,29,239,27,,,,,,,,,,,,,,,left,0.269081830978,,,,,participant15,24,59.9523731929,Male,trial,2017_May_28_2029,
,,0.49,"[-6.75, 0]",/sounds/legit/left100.wav,,,,,6,30,240,33,,,,,,,,,,,,,,,left,0.251401901245,,,,,participant15,24,59.9523731929,Male,trial,2017_May_28_2029,
,,0.23,"[0, 0]",/sounds/legit/equal.wav,,,,,6,31,241,1,,,,,,,,,,,,,,,left,0.319261074066,,,,,participant15,24,59.9523731929,Male,trial,2017_May_28_2029,
,,0.23,"[2.25, 0]",/sounds/legit/right35.wav,,,,,6,32,242,6,,,,,,,,,,,,,,,right,0.23400592804,,,,,participant15,24,59.9523731929,Male,trial,2017_May_28_2029,
,,0.62,"[0, 0]",/sounds/legit/equal.wav,,,,,6,33,243,4,,,,,,,,,,,,,,,left,0.234893083572,,,,,participant15,24,59.9523731929,Male,trial,2017_May_28_2029,
,,0.62,"[-2.25, 0]",/sounds/legit/left35.wav,,,,,6,34,244,24,,,,,,,,,,,,,,,left,0.151425123215,,,,,participant15,24,59.9523731929,Male,trial,2017_May_28_2029,
,,0.23,"[6.75, 0]",/sounds/legit/right100.wav,,,,,7,0,245,16,,,,,,,,,,,,,,,right,0.101402997971,,,,,participant15,24,59.9523731929,Male,trial,2017_May_28_2029,
,,0.49,"[-2.25, 0]",/sounds/legit/left35.wav,,,,,7,1,246,23,,,,,,,,,,,,,,,left,0.201794147491,,,,,participant15,24,59.9523731929,Male,trial,2017_May_28_2029,
,,0.49,"[4.5, 0]",/sounds/legit/right70.wav,,,,,7,2,247,13,,,,,,,,,,,,,,,right,0.18475484848,,,,,participant15,24,59.9523731929,Male,trial,2017_May_28_2029,
,,0.36,"[2.25, 0]",/sounds/legit/right35.wav,,,,,7,3,248,7,,,,,,,,,,,,,,,right,0.184752941132,,,,,participant15,24,59.9523731929,Male,trial,2017_May_28_2029,
,,0.23,"[2.25, 0]",/sounds/legit/right35.wav,,,,,7,4,249,6,,,,,,,,,,,,,,,right,0.0346179008484,,,,,participant15,24,59.9523731929,Male,trial,2017_May_28_2029,
,,0.49,"[-6.75, 0]",/sounds/legit/left100.wav,,,,,7,5,250,33,,,,,,,,,,,,,,,left,0.285479068756,,,,,participant15,24,59.9523731929,Male,trial,2017_May_28_2029,
,,0.62,"[-6.75, 0]",/sounds/legit/left100.wav,,,,,7,6,251,34,,,,,,,,,,,,,,,left,0.0850901603699,,,,,participant15,24,59.9523731929,Male,trial,2017_May_28_2029,
,,0.49,"[-4.5, 0]",/sounds/legit/left70.wav,,,,,7,7,252,28,,,,,,,,,,,,,,,left,0.234962940216,,,,,participant15,24,59.9523731929,Male,trial,2017_May_28_2029,
,,0.1,"[6.75, 0]",/sounds/legit/right100.wav,,,,,7,8,253,15,,,,,,,,,,,,,,,right,0.218517065048,,,,,participant15,24,59.9523731929,Male,trial,2017_May_28_2029,
,,0.1,"[-4.5, 0]",/sounds/legit/left70.wav,,,,,7,9,254,25,,,,,,,,,,,,,,,left,0.234992980957,,,,,participant15,24,59.9523731929,Male,trial,2017_May_28_2029,
,,0.49,"[0, 0]",/sounds/legit/equal.wav,,,,,7,10,255,3,,,,,,,,,,,,,,,right,0.618775844574,,,,,participant15,24,59.9523731929,Male,trial,2017_May_28_2029,
,,0.36,"[-6.75, 0]",/sounds/legit/left100.wav,,,,,7,11,256,32,,,,,,,,,,,,,,,left,0.634787082672,,,,,participant15,24,59.9523731929,Male,trial,2017_May_28_2029,
,,0.1,"[0, 0]",/sounds/legit/equal.wav,,,,,7,12,257,0,,,,,,,,,,,,,,,right,0.451834917068,,,,,participant15,24,59.9523731929,Male,trial,2017_May_28_2029,
,,0.1,"[4.5, 0]",/sounds/legit/right70.wav,,,,,7,13,258,10,,,,,,,,,,,,,,,right,0.135242938995,,,,,participant15,24,59.9523731929,Male,trial,2017_May_28_2029,
,,0.62,"[4.5, 0]",/sounds/legit/right70.wav,,,,,7,14,259,14,,,,,,,,,,,,,,,right,0.184652805328,,,,,participant15,24,59.9523731929,Male,trial,2017_May_28_2029,
,,0.62,"[2.25, 0]",/sounds/legit/right35.wav,,,,,7,15,260,9,,,,,,,,,,,,,,,right,0.0179641246796,,,,,participant15,24,59.9523731929,Male,trial,2017_May_28_2029,
,,0.1,"[-6.75, 0]",/sounds/legit/left100.wav,,,,,7,16,261,30,,,,,,,,,,,,,,,left,0.350028038025,,,,,participant15,24,59.9523731929,Male,trial,2017_May_28_2029,
,,0.1,"[-2.25, 0]",/sounds/legit/left35.wav,,,,,7,17,262,20,,,,,,,,,,,,,,,left,0.118454217911,,,,,participant15,24,59.9523731929,Male,trial,2017_May_28_2029,
,,0.36,"[-2.25, 0]",/sounds/legit/left35.wav,,,,,7,18,263,22,,,,,,,,,,,,,,,left,0.384402990341,,,,,participant15,24,59.9523731929,Male,trial,2017_May_28_2029,
,,0.23,"[4.5, 0]",/sounds/legit/right70.wav,,,,,7,19,264,11,,,,,,,,,,,,,,,right,0.433938026428,,,,,participant15,24,59.9523731929,Male,trial,2017_May_28_2029,
,,0.36,"[6.75, 0]",/sounds/legit/right100.wav,,,,,7,20,265,17,,,,,,,,,,,,,,,right,0.919157028198,,,,,participant15,24,59.9523731929,Male,trial,2017_May_28_2029,
,,0.62,"[-2.25, 0]",/sounds/legit/left35.wav,,,,,7,21,266,24,,,,,,,,,,,,,,,left,0.368363857269,,,,,participant15,24,59.9523731929,Male,trial,2017_May_28_2029,
,,0.49,"[2.25, 0]",/sounds/legit/right35.wav,,,,,7,22,267,8,,,,,,,,,,,,,,,right,0.351263999939,,,,,participant15,24,59.9523731929,Male,trial,2017_May_28_2029,
,,0.36,"[4.5, 0]",/sounds/legit/right70.wav,,,,,7,23,268,12,,,,,,,,,,,,,,,right,0.285048007965,,,,,participant15,24,59.9523731929,Male,trial,2017_May_28_2029,
,,0.1,"[2.25, 0]",/sounds/legit/right35.wav,,,,,7,24,269,5,,,,,,,,,,,,,,,right,0.301474094391,,,,,participant15,24,59.9523731929,Male,trial,2017_May_28_2029,
,,0.49,"[6.75, 0]",/sounds/legit/right100.wav,,,,,7,25,270,18,,,,,,,,,,,,,,,right,0.367995977402,,,,,participant15,24,59.9523731929,Male,trial,2017_May_28_2029,
,,0.36,"[-4.5, 0]",/sounds/legit/left70.wav,,,,,7,26,271,27,,,,,,,,,,,,,,,left,0.402002096176,,,,,participant15,24,59.9523731929,Male,trial,2017_May_28_2029,
,,0.23,"[-4.5, 0]",/sounds/legit/left70.wav,,,,,7,27,272,26,,,,,,,,,,,,,,,left,0.251324176788,,,,,participant15,24,59.9523731929,Male,trial,2017_May_28_2029,
,,0.36,"[0, 0]",/sounds/legit/equal.wav,,,,,7,28,273,2,,,,,,,,,,,,,,,left,0.317862033844,,,,,participant15,24,59.9523731929,Male,trial,2017_May_28_2029,
,,0.23,"[-6.75, 0]",/sounds/legit/left100.wav,,,,,7,29,274,31,,,,,,,,,,,,,,,left,0.23525595665,,,,,participant15,24,59.9523731929,Male,trial,2017_May_28_2029,
,,0.23,"[0, 0]",/sounds/legit/equal.wav,,,,,7,30,275,1,,,,,,,,,,,,,,,left,0.568282842636,,,,,participant15,24,59.9523731929,Male,trial,2017_May_28_2029,
,,0.62,"[-4.5, 0]",/sounds/legit/left70.wav,,,,,7,31,276,29,,,,,,,,,,,,,,,left,0.252616882324,,,,,participant15,24,59.9523731929,Male,trial,2017_May_28_2029,
,,0.23,"[-2.25, 0]",/sounds/legit/left35.wav,,,,,7,32,277,21,,,,,,,,,,,,,,,left,0.267915964127,,,,,participant15,24,59.9523731929,Male,trial,2017_May_28_2029,
,,0.62,"[6.75, 0]",/sounds/legit/right100.wav,,,,,7,33,278,19,,,,,,,,,,,,,,,right,0.25189781189,,,,,participant15,24,59.9523731929,Male,trial,2017_May_28_2029,
,,0.62,"[0, 0]",/sounds/legit/equal.wav,,,,,7,34,279,4,,,,,,,,,,,,,,,right,0.302412986755,,,,,participant15,24,59.9523731929,Male,trial,2017_May_28_2029,
,,0.62,"[6.75, 0]",/sounds/legit/right100.wav,,,,,8,0,280,19,,,,,,,,,,,,,,,right,0.268228054047,,,,,participant15,24,59.9523731929,Male,trial,2017_May_28_2029,
,,0.62,"[-4.5, 0]",/sounds/legit/left70.wav,,,,,8,1,281,29,,,,,,,,,,,,,,,left,0.251883983612,,,,,participant15,24,59.9523731929,Male,trial,2017_May_28_2029,
,,0.36,"[-4.5, 0]",/sounds/legit/left70.wav,,,,,8,2,282,27,,,,,,,,,,,,,,,left,0.26828289032,,,,,participant15,24,59.9523731929,Male,trial,2017_May_28_2029,
,,0.1,"[-4.5, 0]",/sounds/legit/left70.wav,,,,,8,3,283,25,,,,,,,,,,,,,,,left,0.235097169876,,,,,participant15,24,59.9523731929,Male,trial,2017_May_28_2029,
,,0.23,"[2.25, 0]",/sounds/legit/right35.wav,,,,,8,4,284,6,,,,,,,,,,,,,,,right,0.267518997192,,,,,participant15,24,59.9523731929,Male,trial,2017_May_28_2029,
,,0.49,"[6.75, 0]",/sounds/legit/right100.wav,,,,,8,5,285,18,,,,,,,,,,,,,,,right,0.268413066864,,,,,participant15,24,59.9523731929,Male,trial,2017_May_28_2029,
,,0.1,"[0, 0]",/sounds/legit/equal.wav,,,,,8,6,286,0,,,,,,,,,,,,,,,right,0.384792089462,,,,,participant15,24,59.9523731929,Male,trial,2017_May_28_2029,
,,0.23,"[4.5, 0]",/sounds/legit/right70.wav,,,,,8,7,287,11,,,,,,,,,,,,,,,right,0.18362903595,,,,,participant15,24,59.9523731929,Male,trial,2017_May_28_2029,
,,0.62,"[0, 0]",/sounds/legit/equal.wav,,,,,8,8,288,4,,,,,,,,,,,,,,,right,0.217159986496,,,,,participant15,24,59.9523731929,Male,trial,2017_May_28_2029,
,,0.23,"[6.75, 0]",/sounds/legit/right100.wav,,,,,8,9,289,16,,,,,,,,,,,,,,,right,0.135059833527,,,,,participant15,24,59.9523731929,Male,trial,2017_May_28_2029,
,,0.49,"[0, 0]",/sounds/legit/equal.wav,,,,,8,10,290,3,,,,,,,,,,,,,,,left,1.10163187981,,,,,participant15,24,59.9523731929,Male,trial,2017_May_28_2029,
,,0.49,"[2.25, 0]",/sounds/legit/right35.wav,,,,,8,11,291,8,,,,,,,,,,,,,,,right,0.235227108002,,,,,participant15,24,59.9523731929,Male,trial,2017_May_28_2029,
,,0.36,"[2.25, 0]",/sounds/legit/right35.wav,,,,,8,12,292,7,,,,,,,,,,,,,,,right,0.200776100159,,,,,participant15,24,59.9523731929,Male,trial,2017_May_28_2029,
,,0.62,"[4.5, 0]",/sounds/legit/right70.wav,,,,,8,13,293,14,,,,,,,,,,,,,,,right,0.218599081039,,,,,participant15,24,59.9523731929,Male,trial,2017_May_28_2029,
,,0.62,"[2.25, 0]",/sounds/legit/right35.wav,,,,,8,14,294,9,,,,,,,,,,,,,,,right,0.135109901428,,,,,participant15,24,59.9523731929,Male,trial,2017_May_28_2029,
,,0.1,"[6.75, 0]",/sounds/legit/right100.wav,,,,,8,15,295,15,,,,,,,,,,,,,,,right,0.151932954788,,,,,participant15,24,59.9523731929,Male,trial,2017_May_28_2029,
,,0.49,"[-6.75, 0]",/sounds/legit/left100.wav,,,,,8,16,296,33,,,,,,,,,,,,,,,left,0.0186419487,,,,,participant15,24,59.9523731929,Male,trial,2017_May_28_2029,
,,0.49,"[-2.25, 0]",/sounds/legit/left35.wav,,,,,8,17,297,23,,,,,,,,,,,,,,,left,0.200475931168,,,,,participant15,24,59.9523731929,Male,trial,2017_May_28_2029,
,,0.36,"[4.5, 0]",/sounds/legit/right70.wav,,,,,8,18,298,12,,,,,,,,,,,,,,,right,0.284726858139,,,,,participant15,24,59.9523731929,Male,trial,2017_May_28_2029,
,,0.23,"[-4.5, 0]",/sounds/legit/left70.wav,,,,,8,19,299,26,,,,,,,,,,,,,,,left,0.234829187393,,,,,participant15,24,59.9523731929,Male,trial,2017_May_28_2029,
,,0.36,"[-6.75, 0]",/sounds/legit/left100.wav,,,,,8,20,300,32,,,,,,,,,,,,,,,left,0.251405000687,,,,,participant15,24,59.9523731929,Male,trial,2017_May_28_2029,
,,0.36,"[-2.25, 0]",/sounds/legit/left35.wav,,,,,8,21,301,22,,,,,,,,,,,,,,,left,0.267665147781,,,,,participant15,24,59.9523731929,Male,trial,2017_May_28_2029,
,,0.49,"[-4.5, 0]",/sounds/legit/left70.wav,,,,,8,22,302,28,,,,,,,,,,,,,,,left,0.252027988434,,,,,participant15,24,59.9523731929,Male,trial,2017_May_28_2029,
,,0.1,"[-6.75, 0]",/sounds/legit/left100.wav,,,,,8,23,303,30,,,,,,,,,,,,,,,left,0.81914806366,,,,,participant15,24,59.9523731929,Male,trial,2017_May_28_2029,
,,0.36,"[6.75, 0]",/sounds/legit/right100.wav,,,,,8,24,304,17,,,,,,,,,,,,,,,right,0.251132011414,,,,,participant15,24,59.9523731929,Male,trial,2017_May_28_2029,
,,0.23,"[-2.25, 0]",/sounds/legit/left35.wav,,,,,8,25,305,21,,,,,,,,,,,,,,,left,0.183344841003,,,,,participant15,24,59.9523731929,Male,trial,2017_May_28_2029,
,,0.1,"[2.25, 0]",/sounds/legit/right35.wav,,,,,8,26,306,5,,,,,,,,,,,,,,,right,0.334841012955,,,,,participant15,24,59.9523731929,Male,trial,2017_May_28_2029,
,,0.49,"[4.5, 0]",/sounds/legit/right70.wav,,,,,8,27,307,13,,,,,,,,,,,,,,,right,0.251623153687,,,,,participant15,24,59.9523731929,Male,trial,2017_May_28_2029,
,,0.23,"[-6.75, 0]",/sounds/legit/left100.wav,,,,,8,28,308,31,,,,,,,,,,,,,,,left,0.151773929596,,,,,participant15,24,59.9523731929,Male,trial,2017_May_28_2029,
,,0.1,"[4.5, 0]",/sounds/legit/right70.wav,,,,,8,29,309,10,,,,,,,,,,,,,,,right,0.252158164978,,,,,participant15,24,59.9523731929,Male,trial,2017_May_28_2029,
,,0.62,"[-6.75, 0]",/sounds/legit/left100.wav,,,,,8,30,310,34,,,,,,,,,,,,,,,left,0.217524051666,,,,,participant15,24,59.9523731929,Male,trial,2017_May_28_2029,
,,0.23,"[0, 0]",/sounds/legit/equal.wav,,,,,8,31,311,1,,,,,,,,,,,,,,,right,1.68618488312,,,,,participant15,24,59.9523731929,Male,trial,2017_May_28_2029,
,,0.62,"[-2.25, 0]",/sounds/legit/left35.wav,,,,,8,32,312,24,,,,,,,,,,,,,,,left,0.168758869171,,,,,participant15,24,59.9523731929,Male,trial,2017_May_28_2029,
,,0.36,"[0, 0]",/sounds/legit/equal.wav,,,,,8,33,313,2,,,,,,,,,,,,,,,right,1.43550109863,,,,,participant15,24,59.9523731929,Male,trial,2017_May_28_2029,
,,0.1,"[-2.25, 0]",/sounds/legit/left35.wav,,,,,8,34,314,20,,,,,,,,,,,,,,,left,0.151265859604,,,,,participant15,24,59.9523731929,Male,trial,2017_May_28_2029,
,,0.49,"[6.75, 0]",/sounds/legit/right100.wav,,,,,9,0,315,18,,,,,,,,,,,,,,,right,0.101624011993,,,,,participant15,24,59.9523731929,Male,trial,2017_May_28_2029,
,,0.36,"[6.75, 0]",/sounds/legit/right100.wav,,,,,9,1,316,17,,,,,,,,,,,,,,,right,0.318256139755,,,,,participant15,24,59.9523731929,Male,trial,2017_May_28_2029,
,,0.62,"[-6.75, 0]",/sounds/legit/left100.wav,,,,,9,2,317,34,,,,,,,,,,,,,,,left,0.28541302681,,,,,participant15,24,59.9523731929,Male,trial,2017_May_28_2029,
,,0.36,"[-6.75, 0]",/sounds/legit/left100.wav,,,,,9,3,318,32,,,,,,,,,,,,,,,left,0.285443782806,,,,,participant15,24,59.9523731929,Male,trial,2017_May_28_2029,
,,0.23,"[2.25, 0]",/sounds/legit/right35.wav,,,,,9,4,319,6,,,,,,,,,,,,,,,right,0.200133085251,,,,,participant15,24,59.9523731929,Male,trial,2017_May_28_2029,
,,0.36,"[0, 0]",/sounds/legit/equal.wav,,,,,9,5,320,2,,,,,,,,,,,,,,,right,0.218159914017,,,,,participant15,24,59.9523731929,Male,trial,2017_May_28_2029,
,,0.1,"[-4.5, 0]",/sounds/legit/left70.wav,,,,,9,6,321,25,,,,,,,,,,,,,,,left,0.285234928131,,,,,participant15,24,59.9523731929,Male,trial,2017_May_28_2029,
,,0.49,"[-2.25, 0]",/sounds/legit/left35.wav,,,,,9,7,322,23,,,,,,,,,,,,,,,left,0.268487930298,,,,,participant15,24,59.9523731929,Male,trial,2017_May_28_2029,
,,0.1,"[2.25, 0]",/sounds/legit/right35.wav,,,,,9,8,323,5,,,,,,,,,,,,,,,right,0.267246007919,,,,,participant15,24,59.9523731929,Male,trial,2017_May_28_2029,
,,0.36,"[2.25, 0]",/sounds/legit/right35.wav,,,,,9,9,324,7,,,,,,,,,,,,,,,right,0.318107128143,,,,,participant15,24,59.9523731929,Male,trial,2017_May_28_2029,
,,0.1,"[6.75, 0]",/sounds/legit/right100.wav,,,,,9,10,325,15,,,,,,,,,,,,,,,right,0.218165159225,,,,,participant15,24,59.9523731929,Male,trial,2017_May_28_2029,
,,0.49,"[2.25, 0]",/sounds/legit/right35.wav,,,,,9,11,326,8,,,,,,,,,,,,,,,right,0.118374109268,,,,,participant15,24,59.9523731929,Male,trial,2017_May_28_2029,
,,0.23,"[6.75, 0]",/sounds/legit/right100.wav,,,,,9,12,327,16,,,,,,,,,,,,,,,right,0.151745080948,,,,,participant15,24,59.9523731929,Male,trial,2017_May_28_2029,
,,0.49,"[0, 0]",/sounds/legit/equal.wav,,,,,9,13,328,3,,,,,,,,,,,,,,,right,0.368891000748,,,,,participant15,24,59.9523731929,Male,trial,2017_May_28_2029,
,,0.49,"[-4.5, 0]",/sounds/legit/left70.wav,,,,,9,14,329,28,,,,,,,,,,,,,,,left,0.0681130886078,,,,,participant15,24,59.9523731929,Male,trial,2017_May_28_2029,
,,0.62,"[6.75, 0]",/sounds/legit/right100.wav,,,,,9,15,330,19,,,,,,,,,,,,,,,right,0.301696062088,,,,,participant15,24,59.9523731929,Male,trial,2017_May_28_2029,
,,0.62,"[2.25, 0]",/sounds/legit/right35.wav,,,,,9,16,331,9,,,,,,,,,,,,,,,right,0.301570892334,,,,,participant15,24,59.9523731929,Male,trial,2017_May_28_2029,
,,0.62,"[0, 0]",/sounds/legit/equal.wav,,,,,9,17,332,4,,,,,,,,,,,,,,,right,0.235754013062,,,,,participant15,24,59.9523731929,Male,trial,2017_May_28_2029,
,,0.49,"[4.5, 0]",/sounds/legit/right70.wav,,,,,9,18,333,13,,,,,,,,,,,,,,,right,0.151669979095,,,,,participant15,24,59.9523731929,Male,trial,2017_May_28_2029,
,,0.1,"[4.5, 0]",/sounds/legit/right70.wav,,,,,9,19,334,10,,,,,,,,,,,,,,,right,0.134832143784,,,,,participant15,24,59.9523731929,Male,trial,2017_May_28_2029,
,,0.23,"[0, 0]",/sounds/legit/equal.wav,,,,,9,20,335,1,,,,,,,,,,,,,,,right,0.283172130585,,,,,participant15,24,59.9523731929,Male,trial,2017_May_28_2029,
,,0.36,"[-2.25, 0]",/sounds/legit/left35.wav,,,,,9,21,336,22,,,,,,,,,,,,,,,left,0.235213041306,,,,,participant15,24,59.9523731929,Male,trial,2017_May_28_2029,
,,0.62,"[-4.5, 0]",/sounds/legit/left70.wav,,,,,9,22,337,29,,,,,,,,,,,,,,,left,0.134539842606,,,,,participant15,24,59.9523731929,Male,trial,2017_May_28_2029,
,,0.23,"[-2.25, 0]",/sounds/legit/left35.wav,,,,,9,23,338,21,,,,,,,,,,,,,,,left,0.26865696907,,,,,participant15,24,59.9523731929,Male,trial,2017_May_28_2029,
,,0.36,"[4.5, 0]",/sounds/legit/right70.wav,,,,,9,24,339,12,,,,,,,,,,,,,,,right,1.31876802444,,,,,participant15,24,59.9523731929,Male,trial,2017_May_28_2029,
,,0.1,"[-2.25, 0]",/sounds/legit/left35.wav,,,,,9,25,340,20,,,,,,,,,,,,,,,left,0.268661975861,,,,,participant15,24,59.9523731929,Male,trial,2017_May_28_2029,
,,0.23,"[-4.5, 0]",/sounds/legit/left70.wav,,,,,9,26,341,26,,,,,,,,,,,,,,,left,0.318996906281,,,,,participant15,24,59.9523731929,Male,trial,2017_May_28_2029,
,,0.1,"[-6.75, 0]",/sounds/legit/left100.wav,,,,,9,27,342,30,,,,,,,,,,,,,,,left,0.266131162643,,,,,participant15,24,59.9523731929,Male,trial,2017_May_28_2029,
,,0.62,"[4.5, 0]",/sounds/legit/right70.wav,,,,,9,28,343,14,,,,,,,,,,,,,,,right,0.185008049011,,,,,participant15,24,59.9523731929,Male,trial,2017_May_28_2029,
,,0.36,"[-4.5, 0]",/sounds/legit/left70.wav,,,,,9,29,344,27,,,,,,,,,,,,,,,left,0.234983921051,,,,,participant15,24,59.9523731929,Male,trial,2017_May_28_2029,
,,0.49,"[-6.75, 0]",/sounds/legit/left100.wav,,,,,9,30,345,33,,,,,,,,,,,,,,,left,0.368189811707,,,,,participant15,24,59.9523731929,Male,trial,2017_May_28_2029,
,,0.1,"[0, 0]",/sounds/legit/equal.wav,,,,,9,31,346,0,,,,,,,,,,,,,,,left,0.900694847107,,,,,participant15,24,59.9523731929,Male,trial,2017_May_28_2029,
,,0.62,"[-2.25, 0]",/sounds/legit/left35.wav,,,,,9,32,347,24,,,,,,,,,,,,,,,left,0.05087018013,,,,,participant15,24,59.9523731929,Male,trial,2017_May_28_2029,
,,0.23,"[-6.75, 0]",/sounds/legit/left100.wav,,,,,9,33,348,31,,,,,,,,,,,,,,,left,0.351360082626,,,,,participant15,24,59.9523731929,Male,trial,2017_May_28_2029,
,,0.23,"[4.5, 0]",/sounds/legit/right70.wav,,,,,9,34,349,11,,,,,,,,,,,,,,,right,0.117959976196,,,,,participant15,24,59.9523731929,Male,trial,2017_May_28_2029,
,,,,,,,,,,,,,,,,,,,,,,,,,,,,,space,34.18602705,,,participant15,24,59.9523731929,Male,trial,2017_May_28_2029,
,,0.1,"[4.5, 0]",/sounds/legit/right70.wav,,,,,,,,,0,0,0,10,,,,,,,,,,,,,,,right,0.483902931213,participant15,24,59.9523731929,Male,trial,2017_May_28_2029,
,,0.62,"[4.5, 0]",/sounds/legit/right70.wav,,,,,,,,,0,1,1,14,,,,,,,,,,,,,,,right,0.21871304512,participant15,24,59.9523731929,Male,trial,2017_May_28_2029,
,,0.23,"[0, 0]",/sounds/legit/equal.wav,,,,,,,,,0,2,2,1,,,,,,,,,,,,,,,right,0.418293952942,participant15,24,59.9523731929,Male,trial,2017_May_28_2029,
,,0.23,"[-2.25, 0]",/sounds/legit/left35.wav,,,,,,,,,0,3,3,21,,,,,,,,,,,,,,,left,0.368063926697,participant15,24,59.9523731929,Male,trial,2017_May_28_2029,
,,0.1,"[-2.25, 0]",/sounds/legit/left35.wav,,,,,,,,,0,4,4,20,,,,,,,,,,,,,,,left,0.369578123093,participant15,24,59.9523731929,Male,trial,2017_May_28_2029,
,,0.62,"[0, 0]",/sounds/legit/equal.wav,,,,,,,,,0,5,5,4,,,,,,,,,,,,,,,right,0.435183048248,participant15,24,59.9523731929,Male,trial,2017_May_28_2029,
,,0.62,"[6.75, 0]",/sounds/legit/right100.wav,,,,,,,,,0,6,6,19,,,,,,,,,,,,,,,right,0.351113080978,participant15,24,59.9523731929,Male,trial,2017_May_28_2029,
,,0.49,"[4.5, 0]",/sounds/legit/right70.wav,,,,,,,,,0,7,7,13,,,,,,,,,,,,,,,right,0.452605009079,participant15,24,59.9523731929,Male,trial,2017_May_28_2029,
,,0.36,"[-6.75, 0]",/sounds/legit/left100.wav,,,,,,,,,0,8,8,32,,,,,,,,,,,,,,,left,0.33456993103,participant15,24,59.9523731929,Male,trial,2017_May_28_2029,
,,0.36,"[-2.25, 0]",/sounds/legit/left35.wav,,,,,,,,,0,9,9,22,,,,,,,,,,,,,,,right,0.485076189041,participant15,24,59.9523731929,Male,trial,2017_May_28_2029,
,,0.23,"[-4.5, 0]",/sounds/legit/left70.wav,,,,,,,,,0,10,10,26,,,,,,,,,,,,,,,left,0.367873907089,participant15,24,59.9523731929,Male,trial,2017_May_28_2029,
,,0.36,"[-6.75, 0]",/sounds/legit/left100.wav,,,,,,,,,0,11,11,32,,,,,,,,,,,,,,,left,0.31670498848,participant15,24,59.9523731929,Male,trial,2017_May_28_2029,
,,0.1,"[4.5, 0]",/sounds/legit/right70.wav,,,,,,,,,0,12,12,10,,,,,,,,,,,,,,,right,0.234127998352,participant15,24,59.9523731929,Male,trial,2017_May_28_2029,
,,0.1,"[4.5, 0]",/sounds/legit/right70.wav,,,,,,,,,0,13,13,10,,,,,,,,,,,,,,,right,0.385025978088,participant15,24,59.9523731929,Male,trial,2017_May_28_2029,
,,0.49,"[-6.75, 0]",/sounds/legit/left100.wav,,,,,,,,,0,14,14,33,,,,,,,,,,,,,,,left,0.251134872437,participant15,24,59.9523731929,Male,trial,2017_May_28_2029,
,,0.23,"[2.25, 0]",/sounds/legit/right35.wav,,,,,,,,,0,15,15,6,,,,,,,,,,,,,,,right,0.28593993187,participant15,24,59.9523731929,Male,trial,2017_May_28_2029,
,,0.49,"[0, 0]",/sounds/legit/equal.wav,,,,,,,,,0,16,16,3,,,,,,,,,,,,,,,right,0.435464143753,participant15,24,59.9523731929,Male,trial,2017_May_28_2029,
,,0.62,"[-2.25, 0]",/sounds/legit/left35.wav,,,,,,,,,0,17,17,24,,,,,,,,,,,,,,,left,0.201474905014,participant15,24,59.9523731929,Male,trial,2017_May_28_2029,
,,0.1,"[-4.5, 0]",/sounds/legit/left70.wav,,,,,,,,,0,18,18,25,,,,,,,,,,,,,,,left,0.168349027634,participant15,24,59.9523731929,Male,trial,2017_May_28_2029,
,,0.62,"[6.75, 0]",/sounds/legit/right100.wav,,,,,,,,,0,19,19,19,,,,,,,,,,,,,,,right,0.20116519928,participant15,24,59.9523731929,Male,trial,2017_May_28_2029,
,,0.23,"[-6.75, 0]",/sounds/legit/left100.wav,,,,,,,,,0,20,20,31,,,,,,,,,,,,,,,left,0.13498210907,participant15,24,59.9523731929,Male,trial,2017_May_28_2029,
,,0.23,"[-6.75, 0]",/sounds/legit/left100.wav,,,,,,,,,0,21,21,31,,,,,,,,,,,,,,,left,0.201726198196,participant15,24,59.9523731929,Male,trial,2017_May_28_2029,
,,0.62,"[2.25, 0]",/sounds/legit/right35.wav,,,,,,,,,0,22,22,9,,,,,,,,,,,,,,,right,0.285362958908,participant15,24,59.9523731929,Male,trial,2017_May_28_2029,
,,0.36,"[0, 0]",/sounds/legit/equal.wav,,,,,,,,,0,23,23,2,,,,,,,,,,,,,,,right,0.351886987686,participant15,24,59.9523731929,Male,trial,2017_May_28_2029,
,,0.36,"[2.25, 0]",/sounds/legit/right35.wav,,,,,,,,,0,24,24,7,,,,,,,,,,,,,,,right,0.60133099556,participant15,24,59.9523731929,Male,trial,2017_May_28_2029,
,,0.49,"[-2.25, 0]",/sounds/legit/left35.wav,,,,,,,,,0,25,25,23,,,,,,,,,,,,,,,right,0.902199029922,participant15,24,59.9523731929,Male,trial,2017_May_28_2029,
,,0.62,"[-4.5, 0]",/sounds/legit/left70.wav,,,,,,,,,0,26,26,29,,,,,,,,,,,,,,,left,0.335592031479,participant15,24,59.9523731929,Male,trial,2017_May_28_2029,
,,0.49,"[-6.75, 0]",/sounds/legit/left100.wav,,,,,,,,,0,27,27,33,,,,,,,,,,,,,,,left,0.302233934402,participant15,24,59.9523731929,Male,trial,2017_May_28_2029,
,,0.49,"[-4.5, 0]",/sounds/legit/left70.wav,,,,,,,,,0,28,28,28,,,,,,,,,,,,,,,left,0.285450935364,participant15,24,59.9523731929,Male,trial,2017_May_28_2029,
,,0.1,"[0, 0]",/sounds/legit/equal.wav,,,,,,,,,0,29,29,0,,,,,,,,,,,,,,,right,0.3517370224,participant15,24,59.9523731929,Male,trial,2017_May_28_2029,
,,0.36,"[0, 0]",/sounds/legit/equal.wav,,,,,,,,,0,30,30,2,,,,,,,,,,,,,,,right,0.26788187027,participant15,24,59.9523731929,Male,trial,2017_May_28_2029,
,,0.62,"[-6.75, 0]",/sounds/legit/left100.wav,,,,,,,,,0,31,31,34,,,,,,,,,,,,,,,left,0.318300008774,participant15,24,59.9523731929,Male,trial,2017_May_28_2029,
,,0.1,"[-4.5, 0]",/sounds/legit/left70.wav,,,,,,,,,0,32,32,25,,,,,,,,,,,,,,,left,0.335355997086,participant15,24,59.9523731929,Male,trial,2017_May_28_2029,
,,0.62,"[-2.25, 0]",/sounds/legit/left35.wav,,,,,,,,,0,33,33,24,,,,,,,,,,,,,,,left,0.467303991318,participant15,24,59.9523731929,Male,trial,2017_May_28_2029,
,,0.49,"[2.25, 0]",/sounds/legit/right35.wav,,,,,,,,,0,34,34,8,,,,,,,,,,,,,,,right,0.467739105225,participant15,24,59.9523731929,Male,trial,2017_May_28_2029,
,,0.23,"[6.75, 0]",/sounds/legit/right100.wav,,,,,,,,,1,0,35,16,,,,,,,,,,,,,,,right,0.201559066772,participant15,24,59.9523731929,Male,trial,2017_May_28_2029,
,,0.1,"[4.5, 0]",/sounds/legit/right70.wav,,,,,,,,,1,1,36,10,,,,,,,,,,,,,,,right,0.268389225006,participant15,24,59.9523731929,Male,trial,2017_May_28_2029,
,,0.36,"[2.25, 0]",/sounds/legit/right35.wav,,,,,,,,,1,2,37,7,,,,,,,,,,,,,,,right,0.334668874741,participant15,24,59.9523731929,Male,trial,2017_May_28_2029,
,,0.1,"[2.25, 0]",/sounds/legit/right35.wav,,,,,,,,,1,3,38,5,,,,,,,,,,,,,,,right,0.30201792717,participant15,24,59.9523731929,Male,trial,2017_May_28_2029,
,,0.1,"[0, 0]",/sounds/legit/equal.wav,,,,,,,,,1,4,39,0,,,,,,,,,,,,,,,right,0.268342018127,participant15,24,59.9523731929,Male,trial,2017_May_28_2029,
,,0.1,"[4.5, 0]",/sounds/legit/right70.wav,,,,,,,,,1,5,40,10,,,,,,,,,,,,,,,right,0.200489997864,participant15,24,59.9523731929,Male,trial,2017_May_28_2029,
,,0.49,"[6.75, 0]",/sounds/legit/right100.wav,,,,,,,,,1,6,41,18,,,,,,,,,,,,,,,right,0.201586008072,participant15,24,59.9523731929,Male,trial,2017_May_28_2029,
,,0.23,"[-2.25, 0]",/sounds/legit/left35.wav,,,,,,,,,1,7,42,21,,,,,,,,,,,,,,,left,0.317823886871,participant15,24,59.9523731929,Male,trial,2017_May_28_2029,
,,0.1,"[2.25, 0]",/sounds/legit/right35.wav,,,,,,,,,1,8,43,5,,,,,,,,,,,,,,,right,0.301949977875,participant15,24,59.9523731929,Male,trial,2017_May_28_2029,
,,0.36,"[-2.25, 0]",/sounds/legit/left35.wav,,,,,,,,,1,9,44,22,,,,,,,,,,,,,,,right,0.668514966965,participant15,24,59.9523731929,Male,trial,2017_May_28_2029,
,,0.23,"[-6.75, 0]",/sounds/legit/left100.wav,,,,,,,,,1,10,45,31,,,,,,,,,,,,,,,left,0.184568881989,participant15,24,59.9523731929,Male,trial,2017_May_28_2029,
,,0.36,"[6.75, 0]",/sounds/legit/right100.wav,,,,,,,,,1,11,46,17,,,,,,,,,,,,,,,right,0.218533992767,participant15,24,59.9523731929,Male,trial,2017_May_28_2029,
,,0.62,"[6.75, 0]",/sounds/legit/right100.wav,,,,,,,,,1,12,47,19,,,,,,,,,,,,,,,right,0.151748895645,participant15,24,59.9523731929,Male,trial,2017_May_28_2029,
,,0.23,"[2.25, 0]",/sounds/legit/right35.wav,,,,,,,,,1,13,48,6,,,,,,,,,,,,,,,right,0.201809167862,participant15,24,59.9523731929,Male,trial,2017_May_28_2029,
,,0.23,"[4.5, 0]",/sounds/legit/right70.wav,,,,,,,,,1,14,49,11,,,,,,,,,,,,,,,right,0.41837310791,participant15,24,59.9523731929,Male,trial,2017_May_28_2029,
,,0.23,"[4.5, 0]",/sounds/legit/right70.wav,,,,,,,,,1,15,50,11,,,,,,,,,,,,,,,right,0.267873048782,participant15,24,59.9523731929,Male,trial,2017_May_28_2029,
,,0.1,"[6.75, 0]",/sounds/legit/right100.wav,,,,,,,,,1,16,51,15,,,,,,,,,,,,,,,right,0.201375007629,participant15,24,59.9523731929,Male,trial,2017_May_28_2029,
,,0.49,"[6.75, 0]",/sounds/legit/right100.wav,,,,,,,,,1,17,52,18,,,,,,,,,,,,,,,right,0.134943962097,participant15,24,59.9523731929,Male,trial,2017_May_28_2029,
,,0.23,"[0, 0]",/sounds/legit/equal.wav,,,,,,,,,1,18,53,1,,,,,,,,,,,,,,,right,0.434934854507,participant15,24,59.9523731929,Male,trial,2017_May_28_2029,
,,0.62,"[6.75, 0]",/sounds/legit/right100.wav,,,,,,,,,1,19,54,19,,,,,,,,,,,,,,,right,0.0852010250092,participant15,24,59.9523731929,Male,trial,2017_May_28_2029,
,,0.36,"[6.75, 0]",/sounds/legit/right100.wav,,,,,,,,,1,20,55,17,,,,,,,,,,,,,,,right,0.234143972397,participant15,24,59.9523731929,Male,trial,2017_May_28_2029,
,,0.49,"[-2.25, 0]",/sounds/legit/left35.wav,,,,,,,,,1,21,56,23,,,,,,,,,,,,,,,left,0.268307924271,participant15,24,59.9523731929,Male,trial,2017_May_28_2029,
,,0.1,"[-4.5, 0]",/sounds/legit/left70.wav,,,,,,,,,1,22,57,25,,,,,,,,,,,,,,,left,0.184681892395,participant15,24,59.9523731929,Male,trial,2017_May_28_2029,
,,0.23,"[-2.25, 0]",/sounds/legit/left35.wav,,,,,,,,,1,23,58,21,,,,,,,,,,,,,,,right,0.268572092056,participant15,24,59.9523731929,Male,trial,2017_May_28_2029,
,,0.36,"[-2.25, 0]",/sounds/legit/left35.wav,,,,,,,,,1,24,59,22,,,,,,,,,,,,,,,right,0.285648107529,participant15,24,59.9523731929,Male,trial,2017_May_28_2029,
,,0.36,"[-4.5, 0]",/sounds/legit/left70.wav,,,,,,,,,1,25,60,27,,,,,,,,,,,,,,,left,0.185584068298,participant15,24,59.9523731929,Male,trial,2017_May_28_2029,
,,0.1,"[2.25, 0]",/sounds/legit/right35.wav,,,,,,,,,1,26,61,5,,,,,,,,,,,,,,,right,0.151158094406,participant15,24,59.9523731929,Male,trial,2017_May_28_2029,
,,0.62,"[-2.25, 0]",/sounds/legit/left35.wav,,,,,,,,,1,27,62,24,,,,,,,,,,,,,,,right,0.201546907425,participant15,24,59.9523731929,Male,trial,2017_May_28_2029,
,,0.62,"[6.75, 0]",/sounds/legit/right100.wav,,,,,,,,,1,28,63,19,,,,,,,,,,,,,,,right,0.185055971146,participant15,24,59.9523731929,Male,trial,2017_May_28_2029,
,,0.62,"[2.25, 0]",/sounds/legit/right35.wav,,,,,,,,,1,29,64,9,,,,,,,,,,,,,,,right,0.183315992355,participant15,24,59.9523731929,Male,trial,2017_May_28_2029,
,,0.49,"[-2.25, 0]",/sounds/legit/left35.wav,,,,,,,,,1,30,65,23,,,,,,,,,,,,,,,right,0.285038948059,participant15,24,59.9523731929,Male,trial,2017_May_28_2029,
,,0.23,"[6.75, 0]",/sounds/legit/right100.wav,,,,,,,,,1,31,66,16,,,,,,,,,,,,,,,right,0.200981855392,participant15,24,59.9523731929,Male,trial,2017_May_28_2029,
,,0.1,"[4.5, 0]",/sounds/legit/right70.wav,,,,,,,,,1,32,67,10,,,,,,,,,,,,,,,right,0.300940990448,participant15,24,59.9523731929,Male,trial,2017_May_28_2029,
,,0.1,"[2.25, 0]",/sounds/legit/right35.wav,,,,,,,,,1,33,68,5,,,,,,,,,,,,,,,right,0.368335962296,participant15,24,59.9523731929,Male,trial,2017_May_28_2029,
,,0.1,"[2.25, 0]",/sounds/legit/right35.wav,,,,,,,,,1,34,69,5,,,,,,,,,,,,,,,right,0.251327037811,participant15,24,59.9523731929,Male,trial,2017_May_28_2029,
,,0.1,"[6.75, 0]",/sounds/legit/right100.wav,,,,,,,,,2,0,70,15,,,,,,,,,,,,,,,right,0.200375080109,participant15,24,59.9523731929,Male,trial,2017_May_28_2029,
,,0.1,"[-2.25, 0]",/sounds/legit/left35.wav,,,,,,,,,2,1,71,20,,,,,,,,,,,,,,,right,0.38539981842,participant15,24,59.9523731929,Male,trial,2017_May_28_2029,
,,0.49,"[4.5, 0]",/sounds/legit/right70.wav,,,,,,,,,2,2,72,13,,,,,,,,,,,,,,,right,0.369132041931,participant15,24,59.9523731929,Male,trial,2017_May_28_2029,
,,0.49,"[0, 0]",/sounds/legit/equal.wav,,,,,,,,,2,3,73,3,,,,,,,,,,,,,,,right,0.518246173859,participant15,24,59.9523731929,Male,trial,2017_May_28_2029,
,,0.49,"[0, 0]",/sounds/legit/equal.wav,,,,,,,,,2,4,74,3,,,,,,,,,,,,,,,right,0.201967000961,participant15,24,59.9523731929,Male,trial,2017_May_28_2029,
,,0.23,"[4.5, 0]",/sounds/legit/right70.wav,,,,,,,,,2,5,75,11,,,,,,,,,,,,,,,right,0.218789100647,participant15,24,59.9523731929,Male,trial,2017_May_28_2029,
,,0.23,"[-4.5, 0]",/sounds/legit/left70.wav,,,,,,,,,2,6,76,26,,,,,,,,,,,,,,,left,0.13521695137,participant15,24,59.9523731929,Male,trial,2017_May_28_2029,
,,0.62,"[-6.75, 0]",/sounds/legit/left100.wav,,,,,,,,,2,7,77,34,,,,,,,,,,,,,,,left,0.15142583847,participant15,24,59.9523731929,Male,trial,2017_May_28_2029,
,,0.23,"[6.75, 0]",/sounds/legit/right100.wav,,,,,,,,,2,8,78,16,,,,,,,,,,,,,,,right,0.318144083023,participant15,24,59.9523731929,Male,trial,2017_May_28_2029,
,,0.49,"[4.5, 0]",/sounds/legit/right70.wav,,,,,,,,,2,9,79,13,,,,,,,,,,,,,,,right,0.333604812622,participant15,24,59.9523731929,Male,trial,2017_May_28_2029,
,,0.62,"[4.5, 0]",/sounds/legit/right70.wav,,,,,,,,,2,10,80,14,,,,,,,,,,,,,,,right,1.26853299141,participant15,24,59.9523731929,Male,trial,2017_May_28_2029,
,,0.1,"[-4.5, 0]",/sounds/legit/left70.wav,,,,,,,,,2,11,81,25,,,,,,,,,,,,,,,left,0.151324987411,participant15,24,59.9523731929,Male,trial,2017_May_28_2029,
,,0.1,"[-2.25, 0]",/sounds/legit/left35.wav,,,,,,,,,2,12,82,20,,,,,,,,,,,,,,,left,0.2524330616,participant15,24,59.9523731929,Male,trial,2017_May_28_2029,
,,0.36,"[4.5, 0]",/sounds/legit/right70.wav,,,,,,,,,2,13,83,12,,,,,,,,,,,,,,,right,0.102319955826,participant15,24,59.9523731929,Male,trial,2017_May_28_2029,
,,0.62,"[-2.25, 0]",/sounds/legit/left35.wav,,,,,,,,,2,14,84,24,,,,,,,,,,,,,,,left,0.235178947449,participant15,24,59.9523731929,Male,trial,2017_May_28_2029,
,,0.49,"[4.5, 0]",/sounds/legit/right70.wav,,,,,,,,,2,15,85,13,,,,,,,,,,,,,,,right,0.151349067688,participant15,24,59.9523731929,Male,trial,2017_May_28_2029,
,,0.23,"[-6.75, 0]",/sounds/legit/left100.wav,,,,,,,,,2,16,86,31,,,,,,,,,,,,,,,left,0.135333061218,participant15,24,59.9523731929,Male,trial,2017_May_28_2029,
,,0.62,"[-6.75, 0]",/sounds/legit/left100.wav,,,,,,,,,2,17,87,34,,,,,,,,,,,,,,,right,0.584829092026,participant15,24,59.9523731929,Male,trial,2017_May_28_2029,
,,0.23,"[-2.25, 0]",/sounds/legit/left35.wav,,,,,,,,,2,18,88,21,,,,,,,,,,,,,,,left,0.36859703064,participant15,24,59.9523731929,Male,trial,2017_May_28_2029,
,,0.23,"[-2.25, 0]",/sounds/legit/left35.wav,,,,,,,,,2,19,89,21,,,,,,,,,,,,,,,right,0.501788854599,participant15,24,59.9523731929,Male,trial,2017_May_28_2029,
,,0.23,"[-2.25, 0]",/sounds/legit/left35.wav,,,,,,,,,2,20,90,21,,,,,,,,,,,,,,,right,0.268793821335,participant15,24,59.9523731929,Male,trial,2017_May_28_2029,
,,0.1,"[-2.25, 0]",/sounds/legit/left35.wav,,,,,,,,,2,21,91,20,,,,,,,,,,,,,,,left,0.234221220016,participant15,24,59.9523731929,Male,trial,2017_May_28_2029,
,,0.36,"[-4.5, 0]",/sounds/legit/left70.wav,,,,,,,,,2,22,92,27,,,,,,,,,,,,,,,left,0.151082038879,participant15,24,59.9523731929,Male,trial,2017_May_28_2029,
,,0.49,"[-2.25, 0]",/sounds/legit/left35.wav,,,,,,,,,2,23,93,23,,,,,,,,,,,,,,,left,0.401095151901,participant15,24,59.9523731929,Male,trial,2017_May_28_2029,
,,0.1,"[-4.5, 0]",/sounds/legit/left70.wav,,,,,,,,,2,24,94,25,,,,,,,,,,,,,,,left,0.101716041565,participant15,24,59.9523731929,Male,trial,2017_May_28_2029,
,,0.36,"[6.75, 0]",/sounds/legit/right100.wav,,,,,,,,,2,25,95,17,,,,,,,,,,,,,,,right,0.0686719417572,participant15,24,59.9523731929,Male,trial,2017_May_28_2029,
,,0.1,"[-6.75, 0]",/sounds/legit/left100.wav,,,,,,,,,2,26,96,30,,,,,,,,,,,,,,,left,0.10155916214,participant15,24,59.9523731929,Male,trial,2017_May_28_2029,
,,0.36,"[-6.75, 0]",/sounds/legit/left100.wav,,,,,,,,,2,27,97,32,,,,,,,,,,,,,,,left,0.201263904572,participant15,24,59.9523731929,Male,trial,2017_May_28_2029,
,,0.1,"[4.5, 0]",/sounds/legit/right70.wav,,,,,,,,,2,28,98,10,,,,,,,,,,,,,,,right,0.152008056641,participant15,24,59.9523731929,Male,trial,2017_May_28_2029,
,,0.1,"[-6.75, 0]",/sounds/legit/left100.wav,,,,,,,,,2,29,99,30,,,,,,,,,,,,,,,left,0.202595949173,participant15,24,59.9523731929,Male,trial,2017_May_28_2029,
,,0.62,"[4.5, 0]",/sounds/legit/right70.wav,,,,,,,,,2,30,100,14,,,,,,,,,,,,,,,right,0.199378013611,participant15,24,59.9523731929,Male,trial,2017_May_28_2029,
,,0.23,"[4.5, 0]",/sounds/legit/right70.wav,,,,,,,,,2,31,101,11,,,,,,,,,,,,,,,right,0.333964109421,participant15,24,59.9523731929,Male,trial,2017_May_28_2029,
,,0.23,"[2.25, 0]",/sounds/legit/right35.wav,,,,,,,,,2,32,102,6,,,,,,,,,,,,,,,right,0.168838024139,participant15,24,59.9523731929,Male,trial,2017_May_28_2029,
,,0.1,"[2.25, 0]",/sounds/legit/right35.wav,,,,,,,,,2,33,103,5,,,,,,,,,,,,,,,right,0.201462030411,participant15,24,59.9523731929,Male,trial,2017_May_28_2029,
,,0.23,"[6.75, 0]",/sounds/legit/right100.wav,,,,,,,,,2,34,104,16,,,,,,,,,,,,,,,right,0.00176405906677,participant15,24,59.9523731929,Male,trial,2017_May_28_2029,
,,0.36,"[-2.25, 0]",/sounds/legit/left35.wav,,,,,,,,,3,0,105,22,,,,,,,,,,,,,,,right,0.268531084061,participant15,24,59.9523731929,Male,trial,2017_May_28_2029,
,,0.49,"[0, 0]",/sounds/legit/equal.wav,,,,,,,,,3,1,106,3,,,,,,,,,,,,,,,right,0.235075950623,participant15,24,59.9523731929,Male,trial,2017_May_28_2029,
,,0.49,"[2.25, 0]",/sounds/legit/right35.wav,,,,,,,,,3,2,107,8,,,,,,,,,,,,,,,right,0.250400066376,participant15,24,59.9523731929,Male,trial,2017_May_28_2029,
,,0.36,"[6.75, 0]",/sounds/legit/right100.wav,,,,,,,,,3,3,108,17,,,,,,,,,,,,,,,right,0.0346338748932,participant15,24,59.9523731929,Male,trial,2017_May_28_2029,
,,0.62,"[-2.25, 0]",/sounds/legit/left35.wav,,,,,,,,,3,4,109,24,,,,,,,,,,,,,,,right,0.418301105499,participant15,24,59.9523731929,Male,trial,2017_May_28_2029,
,,0.49,"[-6.75, 0]",/sounds/legit/left100.wav,,,,,,,,,3,5,110,33,,,,,,,,,,,,,,,left,0.185889005661,participant15,24,59.9523731929,Male,trial,2017_May_28_2029,
,,0.62,"[-6.75, 0]",/sounds/legit/left100.wav,,,,,,,,,3,6,111,34,,,,,,,,,,,,,,,left,0.101515054703,participant15,24,59.9523731929,Male,trial,2017_May_28_2029,
,,0.49,"[0, 0]",/sounds/legit/equal.wav,,,,,,,,,3,7,112,3,,,,,,,,,,,,,,,right,0.367707014084,participant15,24,59.9523731929,Male,trial,2017_May_28_2029,
,,0.49,"[-2.25, 0]",/sounds/legit/left35.wav,,,,,,,,,3,8,113,23,,,,,,,,,,,,,,,right,0.385561943054,participant15,24,59.9523731929,Male,trial,2017_May_28_2029,
,,0.49,"[6.75, 0]",/sounds/legit/right100.wav,,,,,,,,,3,9,114,18,,,,,,,,,,,,,,,right,0.25049996376,participant15,24,59.9523731929,Male,trial,2017_May_28_2029,
,,0.23,"[0, 0]",/sounds/legit/equal.wav,,,,,,,,,3,10,115,1,,,,,,,,,,,,,,,right,0.385798931122,participant15,24,59.9523731929,Male,trial,2017_May_28_2029,
,,0.49,"[-6.75, 0]",/sounds/legit/left100.wav,,,,,,,,,3,11,116,33,,,,,,,,,,,,,,,left,0.167940139771,participant15,24,59.9523731929,Male,trial,2017_May_28_2029,
,,0.36,"[4.5, 0]",/sounds/legit/right70.wav,,,,,,,,,3,12,117,12,,,,,,,,,,,,,,,right,0.252416849136,participant15,24,59.9523731929,Male,trial,2017_May_28_2029,
,,0.49,"[-2.25, 0]",/sounds/legit/left35.wav,,,,,,,,,3,13,118,23,,,,,,,,,,,,,,,right,0.0837788581848,participant15,24,59.9523731929,Male,trial,2017_May_28_2029,
,,0.23,"[-4.5, 0]",/sounds/legit/left70.wav,,,,,,,,,3,14,119,26,,,,,,,,,,,,,,,left,0.11757183075,participant15,24,59.9523731929,Male,trial,2017_May_28_2029,
,,0.62,"[6.75, 0]",/sounds/legit/right100.wav,,,,,,,,,3,15,120,19,,,,,,,,,,,,,,,right,0.701652050018,participant15,24,59.9523731929,Male,trial,2017_May_28_2029,
,,0.36,"[6.75, 0]",/sounds/legit/right100.wav,,,,,,,,,3,16,121,17,,,,,,,,,,,,,,,right,0.651647090912,participant15,24,59.9523731929,Male,trial,2017_May_28_2029,
,,0.23,"[2.25, 0]",/sounds/legit/right35.wav,,,,,,,,,3,17,122,6,,,,,,,,,,,,,,,right,2.51811599731,participant15,24,59.9523731929,Male,trial,2017_May_28_2029,
,,0.49,"[-6.75, 0]",/sounds/legit/left100.wav,,,,,,,,,3,18,123,33,,,,,,,,,,,,,,,left,0.150705099106,participant15,24,59.9523731929,Male,trial,2017_May_28_2029,
,,0.23,"[-6.75, 0]",/sounds/legit/left100.wav,,,,,,,,,3,19,124,31,,,,,,,,,,,,,,,left,0.0349080562592,participant15,24,59.9523731929,Male,trial,2017_May_28_2029,
,,0.36,"[0, 0]",/sounds/legit/equal.wav,,,,,,,,,3,20,125,2,,,,,,,,,,,,,,,right,0.268503189087,participant15,24,59.9523731929,Male,trial,2017_May_28_2029,
,,0.49,"[2.25, 0]",/sounds/legit/right35.wav,,,,,,,,,3,21,126,8,,,,,,,,,,,,,,,right,0.26778793335,participant15,24,59.9523731929,Male,trial,2017_May_28_2029,
,,0.1,"[6.75, 0]",/sounds/legit/right100.wav,,,,,,,,,3,22,127,15,,,,,,,,,,,,,,,right,0.201434850693,participant15,24,59.9523731929,Male,trial,2017_May_28_2029,
,,0.1,"[-6.75, 0]",/sounds/legit/left100.wav,,,,,,,,,3,23,128,30,,,,,,,,,,,,,,,left,0.101801156998,participant15,24,59.9523731929,Male,trial,2017_May_28_2029,
,,0.36,"[2.25, 0]",/sounds/legit/right35.wav,,,,,,,,,3,24,129,7,,,,,,,,,,,,,,,right,0.234450101852,participant15,24,59.9523731929,Male,trial,2017_May_28_2029,
,,0.62,"[-4.5, 0]",/sounds/legit/left70.wav,,,,,,,,,3,25,130,29,,,,,,,,,,,,,,,left,0.152351140976,participant15,24,59.9523731929,Male,trial,2017_May_28_2029,
,,0.62,"[4.5, 0]",/sounds/legit/right70.wav,,,,,,,,,3,26,131,14,,,,,,,,,,,,,,,right,0.184518814087,participant15,24,59.9523731929,Male,trial,2017_May_28_2029,
,,0.23,"[4.5, 0]",/sounds/legit/right70.wav,,,,,,,,,3,27,132,11,,,,,,,,,,,,,,,right,0.150572061539,participant15,24,59.9523731929,Male,trial,2017_May_28_2029,
,,0.49,"[-4.5, 0]",/sounds/legit/left70.wav,,,,,,,,,3,28,133,28,,,,,,,,,,,,,,,left,0.184133052826,participant15,24,59.9523731929,Male,trial,2017_May_28_2029,
,,0.49,"[-4.5, 0]",/sounds/legit/left70.wav,,,,,,,,,3,29,134,28,,,,,,,,,,,,,,,left,0.085312128067,participant15,24,59.9523731929,Male,trial,2017_May_28_2029,
,,0.62,"[0, 0]",/sounds/legit/equal.wav,,,,,,,,,3,30,135,4,,,,,,,,,,,,,,,right,0.184820175171,participant15,24,59.9523731929,Male,trial,2017_May_28_2029,
,,0.62,"[-6.75, 0]",/sounds/legit/left100.wav,,,,,,,,,3,31,136,34,,,,,,,,,,,,,,,left,0.116822957993,participant15,24,59.9523731929,Male,trial,2017_May_28_2029,
,,0.23,"[6.75, 0]",/sounds/legit/right100.wav,,,,,,,,,3,32,137,16,,,,,,,,,,,,,,,right,0.167357206345,participant15,24,59.9523731929,Male,trial,2017_May_28_2029,
,,0.62,"[2.25, 0]",/sounds/legit/right35.wav,,,,,,,,,3,33,138,9,,,,,,,,,,,,,,,right,0.186220169067,participant15,24,59.9523731929,Male,trial,2017_May_28_2029,
,,0.49,"[-2.25, 0]",/sounds/legit/left35.wav,,,,,,,,,3,34,139,23,,,,,,,,,,,,,,,left,0.201763153076,participant15,24,59.9523731929,Male,trial,2017_May_28_2029,
,,0.1,"[6.75, 0]",/sounds/legit/right100.wav,,,,,,,,,4,0,140,15,,,,,,,,,,,,,,,right,0.0512759685516,participant15,24,59.9523731929,Male,trial,2017_May_28_2029,
,,0.62,"[2.25, 0]",/sounds/legit/right35.wav,,,,,,,,,4,1,141,9,,,,,,,,,,,,,,,right,0.151113033295,participant15,24,59.9523731929,Male,trial,2017_May_28_2029,
,,0.23,"[2.25, 0]",/sounds/legit/right35.wav,,,,,,,,,4,2,142,6,,,,,,,,,,,,,,,right,0.118130922318,participant15,24,59.9523731929,Male,trial,2017_May_28_2029,
,,0.49,"[-4.5, 0]",/sounds/legit/left70.wav,,,,,,,,,4,3,143,28,,,,,,,,,,,,,,,left,0.168771028519,participant15,24,59.9523731929,Male,trial,2017_May_28_2029,
,,0.49,"[-6.75, 0]",/sounds/legit/left100.wav,,,,,,,,,4,4,144,33,,,,,,,,,,,,,,,left,0.0343899726868,participant15,24,59.9523731929,Male,trial,2017_May_28_2029,
,,0.23,"[0, 0]",/sounds/legit/equal.wav,,,,,,,,,4,5,145,1,,,,,,,,,,,,,,,right,0.669456005096,participant15,24,59.9523731929,Male,trial,2017_May_28_2029,
,,0.36,"[-2.25, 0]",/sounds/legit/left35.wav,,,,,,,,,4,6,146,22,,,,,,,,,,,,,,,right,0.467745065689,participant15,24,59.9523731929,Male,trial,2017_May_28_2029,
,,0.1,"[6.75, 0]",/sounds/legit/right100.wav,,,,,,,,,4,7,147,15,,,,,,,,,,,,,,,right,0.134188175201,participant15,24,59.9523731929,Male,trial,2017_May_28_2029,
,,0.23,"[-6.75, 0]",/sounds/legit/left100.wav,,,,,,,,,4,8,148,31,,,,,,,,,,,,,,,left,0.151757001877,participant15,24,59.9523731929,Male,trial,2017_May_28_2029,
,,0.62,"[-6.75, 0]",/sounds/legit/left100.wav,,,,,,,,,4,9,149,34,,,,,,,,,,,,,,,left,0.0346119403839,participant15,24,59.9523731929,Male,trial,2017_May_28_2029,
,,0.1,"[4.5, 0]",/sounds/legit/right70.wav,,,,,,,,,4,10,150,10,,,,,,,,,,,,,,,right,0.0519158840179,participant15,24,59.9523731929,Male,trial,2017_May_28_2029,
,,0.23,"[4.5, 0]",/sounds/legit/right70.wav,,,,,,,,,4,11,151,11,,,,,,,,,,,,,,,right,0.117954969406,participant15,24,59.9523731929,Male,trial,2017_May_28_2029,
,,0.49,"[6.75, 0]",/sounds/legit/right100.wav,,,,,,,,,4,12,152,18,,,,,,,,,,,,,,,right,0.168521881104,participant15,24,59.9523731929,Male,trial,2017_May_28_2029,
,,0.49,"[2.25, 0]",/sounds/legit/right35.wav,,,,,,,,,4,13,153,8,,,,,,,,,,,,,,,right,0.201685905457,participant15,24,59.9523731929,Male,trial,2017_May_28_2029,
,,0.36,"[0, 0]",/sounds/legit/equal.wav,,,,,,,,,4,14,154,2,,,,,,,,,,,,,,,right,0.134600877762,participant15,24,59.9523731929,Male,trial,2017_May_28_2029,
,,0.23,"[0, 0]",/sounds/legit/equal.wav,,,,,,,,,4,15,155,1,,,,,,,,,,,,,,,right,0.651757955551,participant15,24,59.9523731929,Male,trial,2017_May_28_2029,
,,0.23,"[2.25, 0]",/sounds/legit/right35.wav,,,,,,,,,4,16,156,6,,,,,,,,,,,,,,,right,0.167840003967,participant15,24,59.9523731929,Male,trial,2017_May_28_2029,
,,0.23,"[-6.75, 0]",/sounds/legit/left100.wav,,,,,,,,,4,17,157,31,,,,,,,,,,,,,,,left,0.0851490497589,participant15,24,59.9523731929,Male,trial,2017_May_28_2029,
,,0.36,"[0, 0]",/sounds/legit/equal.wav,,,,,,,,,4,18,158,2,,,,,,,,,,,,,,,right,0.201933145523,participant15,24,59.9523731929,Male,trial,2017_May_28_2029,
,,0.23,"[2.25, 0]",/sounds/legit/right35.wav,,,,,,,,,4,19,159,6,,,,,,,,,,,,,,,right,0.16975903511,participant15,24,59.9523731929,Male,trial,2017_May_28_2029,
,,0.62,"[-2.25, 0]",/sounds/legit/left35.wav,,,,,,,,,4,20,160,24,,,,,,,,,,,,,,,left,1.5351421833,participant15,24,59.9523731929,Male,trial,2017_May_28_2029,
,,0.36,"[-4.5, 0]",/sounds/legit/left70.wav,,,,,,,,,4,21,161,27,,,,,,,,,,,,,,,left,0.201508045197,participant15,24,59.9523731929,Male,trial,2017_May_28_2029,
,,0.49,"[4.5, 0]",/sounds/legit/right70.wav,,,,,,,,,4,22,162,13,,,,,,,,,,,,,,,right,0.118709087372,participant15,24,59.9523731929,Male,trial,2017_May_28_2029,
,,0.36,"[2.25, 0]",/sounds/legit/right35.wav,,,,,,,,,4,23,163,7,,,,,,,,,,,,,,,right,0.102288007736,participant15,24,59.9523731929,Male,trial,2017_May_28_2029,
,,0.49,"[-2.25, 0]",/sounds/legit/left35.wav,,,,,,,,,4,24,164,23,,,,,,,,,,,,,,,right,0.151890993118,participant15,24,59.9523731929,Male,trial,2017_May_28_2029,
,,0.1,"[-6.75, 0]",/sounds/legit/left100.wav,,,,,,,,,4,25,165,30,,,,,,,,,,,,,,,left,0.0347929000854,participant15,24,59.9523731929,Male,trial,2017_May_28_2029,
,,0.36,"[-2.25, 0]",/sounds/legit/left35.wav,,,,,,,,,4,26,166,22,,,,,,,,,,,,,,,left,0.100858926773,participant15,24,59.9523731929,Male,trial,2017_May_28_2029,
,,0.1,"[-4.5, 0]",/sounds/legit/left70.wav,,,,,,,,,4,27,167,25,,,,,,,,,,,,,,,left,0.0517828464508,participant15,24,59.9523731929,Male,trial,2017_May_28_2029,
,,0.23,"[6.75, 0]",/sounds/legit/right100.wav,,,,,,,,,4,28,168,16,,,,,,,,,,,,,,,right,0.067400932312,participant15,24,59.9523731929,Male,trial,2017_May_28_2029,
,,0.49,"[4.5, 0]",/sounds/legit/right70.wav,,,,,,,,,4,29,169,13,,,,,,,,,,,,,,,right,0.118420124054,participant15,24,59.9523731929,Male,trial,2017_May_28_2029,
,,0.23,"[4.5, 0]",/sounds/legit/right70.wav,,,,,,,,,4,30,170,11,,,,,,,,,,,,,,,right,0.0683989524841,participant15,24,59.9523731929,Male,trial,2017_May_28_2029,
,,0.36,"[0, 0]",/sounds/legit/equal.wav,,,,,,,,,4,31,171,2,,,,,,,,,,,,,,,right,0.168193101883,participant15,24,59.9523731929,Male,trial,2017_May_28_2029,
,,0.36,"[4.5, 0]",/sounds/legit/right70.wav,,,,,,,,,4,32,172,12,,,,,,,,,,,,,,,right,0.00155115127563,participant15,24,59.9523731929,Male,trial,2017_May_28_2029,
,,0.1,"[2.25, 0]",/sounds/legit/right35.wav,,,,,,,,,4,33,173,5,,,,,,,,,,,,,,,right,0.050812959671,participant15,24,59.9523731929,Male,trial,2017_May_28_2029,
,,0.49,"[2.25, 0]",/sounds/legit/right35.wav,,,,,,,,,4,34,174,8,,,,,,,,,,,,,,,right,0.101526975632,participant15,24,59.9523731929,Male,trial,2017_May_28_2029,
,,0.62,"[4.5, 0]",/sounds/legit/right70.wav,,,,,,,,,5,0,175,14,,,,,,,,,,,,,,,right,0.118349075317,participant15,24,59.9523731929,Male,trial,2017_May_28_2029,
,,0.1,"[6.75, 0]",/sounds/legit/right100.wav,,,,,,,,,5,1,176,15,,,,,,,,,,,,,,,right,0.0519740581512,participant15,24,59.9523731929,Male,trial,2017_May_28_2029,
,,0.23,"[-2.25, 0]",/sounds/legit/left35.wav,,,,,,,,,5,2,177,21,,,,,,,,,,,,,,,left,0.36940407753,participant15,24,59.9523731929,Male,trial,2017_May_28_2029,
,,0.49,"[0, 0]",/sounds/legit/equal.wav,,,,,,,,,5,3,178,3,,,,,,,,,,,,,,,right,0.0193381309509,participant15,24,59.9523731929,Male,trial,2017_May_28_2029,
,,0.1,"[-2.25, 0]",/sounds/legit/left35.wav,,,,,,,,,5,4,179,20,,,,,,,,,,,,,,,right,0.768702030182,participant15,24,59.9523731929,Male,trial,2017_May_28_2029,
,,0.49,"[2.25, 0]",/sounds/legit/right35.wav,,,,,,,,,5,5,180,8,,,,,,,,,,,,,,,right,0.067910194397,participant15,24,59.9523731929,Male,trial,2017_May_28_2029,
,,0.49,"[4.5, 0]",/sounds/legit/right70.wav,,,,,,,,,5,6,181,13,,,,,,,,,,,,,,,right,0.0017409324646,participant15,24,59.9523731929,Male,trial,2017_May_28_2029,
,,0.1,"[0, 0]",/sounds/legit/equal.wav,,,,,,,,,5,7,182,0,,,,,,,,,,,,,,,right,0.168564796448,participant15,24,59.9523731929,Male,trial,2017_May_28_2029,
,,0.36,"[-6.75, 0]",/sounds/legit/left100.wav,,,,,,,,,5,8,183,32,,,,,,,,,,,,,,,left,0.168307065964,participant15,24,59.9523731929,Male,trial,2017_May_28_2029,
,,0.62,"[6.75, 0]",/sounds/legit/right100.wav,,,,,,,,,5,9,184,19,,,,,,,,,,,,,,,right,0.00169801712036,participant15,24,59.9523731929,Male,trial,2017_May_28_2029,
,,0.49,"[6.75, 0]",/sounds/legit/right100.wav,,,,,,,,,5,10,185,18,,,,,,,,,,,,,,,right,0.701683998108,participant15,24,59.9523731929,Male,trial,2017_May_28_2029,
,,0.23,"[4.5, 0]",/sounds/legit/right70.wav,,,,,,,,,5,11,186,11,,,,,,,,,,,,,,,right,0.0852301120758,participant15,24,59.9523731929,Male,trial,2017_May_28_2029,
,,0.49,"[4.5, 0]",/sounds/legit/right70.wav,,,,,,,,,5,12,187,13,,,,,,,,,,,,,,,right,0.102240085602,participant15,24,59.9523731929,Male,trial,2017_May_28_2029,
,,0.49,"[-6.75, 0]",/sounds/legit/left100.wav,,,,,,,,,5,13,188,33,,,,,,,,,,,,,,,left,0.20194196701,participant15,24,59.9523731929,Male,trial,2017_May_28_2029,
,,0.1,"[-2.25, 0]",/sounds/legit/left35.wav,,,,,,,,,5,14,189,20,,,,,,,,,,,,,,,right,0.518590211868,participant15,24,59.9523731929,Male,trial,2017_May_28_2029,
,,0.36,"[-6.75, 0]",/sounds/legit/left100.wav,,,,,,,,,5,15,190,32,,,,,,,,,,,,,,,left,0.117703914642,participant15,24,59.9523731929,Male,trial,2017_May_28_2029,
,,0.1,"[-2.25, 0]",/sounds/legit/left35.wav,,,,,,,,,5,16,191,20,,,,,,,,,,,,,,,right,0.15122294426,participant15,24,59.9523731929,Male,trial,2017_May_28_2029,
,,0.62,"[-2.25, 0]",/sounds/legit/left35.wav,,,,,,,,,5,17,192,24,,,,,,,,,,,,,,,left,0.435026884079,participant15,24,59.9523731929,Male,trial,2017_May_28_2029,
,,0.62,"[-6.75, 0]",/sounds/legit/left100.wav,,,,,,,,,5,18,193,34,,,,,,,,,,,,,,,left,0.117537021637,participant15,24,59.9523731929,Male,trial,2017_May_28_2029,
,,0.49,"[6.75, 0]",/sounds/legit/right100.wav,,,,,,,,,5,19,194,18,,,,,,,,,,,,,,,right,0.0842888355255,participant15,24,59.9523731929,Male,trial,2017_May_28_2029,
,,0.62,"[0, 0]",/sounds/legit/equal.wav,,,,,,,,,5,20,195,4,,,,,,,,,,,,,,,right,0.151224136353,participant15,24,59.9523731929,Male,trial,2017_May_28_2029,
,,0.62,"[4.5, 0]",/sounds/legit/right70.wav,,,,,,,,,5,21,196,14,,,,,,,,,,,,,,,right,0.101406812668,participant15,24,59.9523731929,Male,trial,2017_May_28_2029,
,,0.36,"[0, 0]",/sounds/legit/equal.wav,,,,,,,,,5,22,197,2,,,,,,,,,,,,,,,right,0.051717042923,participant15,24,59.9523731929,Male,trial,2017_May_28_2029,
,,0.36,"[0, 0]",/sounds/legit/equal.wav,,,,,,,,,5,23,198,2,,,,,,,,,,,,,,,right,0.135006904602,participant15,24,59.9523731929,Male,trial,2017_May_28_2029,
,,0.36,"[-2.25, 0]",/sounds/legit/left35.wav,,,,,,,,,5,24,199,22,,,,,,,,,,,,,,,right,1.0858399868,participant15,24,59.9523731929,Male,trial,2017_May_28_2029,
,,0.36,"[4.5, 0]",/sounds/legit/right70.wav,,,,,,,,,5,25,200,12,,,,,,,,,,,,,,,right,0.118093013763,participant15,24,59.9523731929,Male,trial,2017_May_28_2029,
,,0.36,"[2.25, 0]",/sounds/legit/right35.wav,,,,,,,,,5,26,201,7,,,,,,,,,,,,,,,right,0.218307971954,participant15,24,59.9523731929,Male,trial,2017_May_28_2029,
,,0.62,"[6.75, 0]",/sounds/legit/right100.wav,,,,,,,,,5,27,202,19,,,,,,,,,,,,,,,right,0.15167093277,participant15,24,59.9523731929,Male,trial,2017_May_28_2029,
,,0.62,"[-6.75, 0]",/sounds/legit/left100.wav,,,,,,,,,5,28,203,34,,,,,,,,,,,,,,,left,0.418225049973,participant15,24,59.9523731929,Male,trial,2017_May_28_2029,
,,0.62,"[4.5, 0]",/sounds/legit/right70.wav,,,,,,,,,5,29,204,14,,,,,,,,,,,,,,,right,0.117993116379,participant15,24,59.9523731929,Male,trial,2017_May_28_2029,
,,0.49,"[-4.5, 0]",/sounds/legit/left70.wav,,,,,,,,,5,30,205,28,,,,,,,,,,,,,,,left,0.102406024933,participant15,24,59.9523731929,Male,trial,2017_May_28_2029,
,,0.62,"[-6.75, 0]",/sounds/legit/left100.wav,,,,,,,,,5,31,206,34,,,,,,,,,,,,,,,left,0.0177171230316,participant15,24,59.9523731929,Male,trial,2017_May_28_2029,
,,0.1,"[0, 0]",/sounds/legit/equal.wav,,,,,,,,,5,32,207,0,,,,,,,,,,,,,,,right,0.134742021561,participant15,24,59.9523731929,Male,trial,2017_May_28_2029,
,,0.36,"[-4.5, 0]",/sounds/legit/left70.wav,,,,,,,,,5,33,208,27,,,,,,,,,,,,,,,left,0.084636926651,participant15,24,59.9523731929,Male,trial,2017_May_28_2029,
,,0.62,"[0, 0]",/sounds/legit/equal.wav,,,,,,,,,5,34,209,4,,,,,,,,,,,,,,,right,0.101633071899,participant15,24,59.9523731929,Male,trial,2017_May_28_2029,
,,0.36,"[4.5, 0]",/sounds/legit/right70.wav,,,,,,,,,6,0,210,12,,,,,,,,,,,,,,,right,0.101165056229,participant15,24,59.9523731929,Male,trial,2017_May_28_2029,
