path,name,noise,location,correspondingAudio,audiotrials.thisRepN,audiotrials.thisTrialN,audiotrials.thisN,audiotrials.thisIndex,visualTrials.thisRepN,visualTrials.thisTrialN,visualTrials.thisN,visualTrials.thisIndex,combinedTrials.thisRepN,combinedTrials.thisTrialN,combinedTrials.thisN,combinedTrials.thisIndex,WelcomeKey.keys,WelcomeKey.rt,key_resp_2.keys,key_resp_2.rt,AudioInstrAccept.keys,AudioInstrAccept.rt,LeftorRight.keys,LeftorRight.rt,VisualBlock.keys,VisualBlock.rt,VisualDecision.keys,VisualDecision.rt,CombinedAccept.keys,CombinedAccept.rt,CombComparisonResponse.keys,CombComparisonResponse.rt,participant,age,frameRate,sex,expName,date,
,,,,,,,,,,,,,,,,,space,24.5738749504,,,,,,,,,,,,,,,participant4,26,59.8136129567,male,trial,2017_May_25_1750,
,,,,,,,,,,,,,,,,,,,space,28.5801551342,,,,,,,,,,,,,participant4,26,59.8136129567,male,trial,2017_May_25_1750,
,,,,,,,,,,,,,,,,,,,,,space,23.2854790688,,,,,,,,,,,participant4,26,59.8136129567,male,trial,2017_May_25_1750,
/sounds/legit/left100.wav,left100,,,,0,0,0,0,,,,,,,,,,,,,,,left,2.53994011879,,,,,,,,,participant4,26,59.8136129567,male,trial,2017_May_25_1750,
/sounds/legit/left70.wav,left60,,,,0,1,1,1,,,,,,,,,,,,,,,left,1.35448789597,,,,,,,,,participant4,26,59.8136129567,male,trial,2017_May_25_1750,
/sounds/legit/right70.wav,right60,,,,0,2,2,4,,,,,,,,,,,,,,,right,0.385744810104,,,,,,,,,participant4,26,59.8136129567,male,trial,2017_May_25_1750,
/sounds/legit/right100.wav,right100,,,,0,3,3,5,,,,,,,,,,,,,,,right,0.402135133743,,,,,,,,,participant4,26,59.8136129567,male,trial,2017_May_25_1750,
/sounds/legit/right35.wav,right30,,,,0,4,4,3,,,,,,,,,,,,,,,right,0.501286029816,,,,,,,,,participant4,26,59.8136129567,male,trial,2017_May_25_1750,
/sounds/legit/left35.wav,left30,,,,0,5,5,2,,,,,,,,,,,,,,,right,1.15412783623,,,,,,,,,participant4,26,59.8136129567,male,trial,2017_May_25_1750,
/sounds/legit/left70.wav,left60,,,,1,0,6,1,,,,,,,,,,,,,,,left,1.08694195747,,,,,,,,,participant4,26,59.8136129567,male,trial,2017_May_25_1750,
/sounds/legit/left35.wav,left30,,,,1,1,7,2,,,,,,,,,,,,,,,left,0.752984046936,,,,,,,,,participant4,26,59.8136129567,male,trial,2017_May_25_1750,
/sounds/legit/right70.wav,right60,,,,1,2,8,4,,,,,,,,,,,,,,,right,0.502623081207,,,,,,,,,participant4,26,59.8136129567,male,trial,2017_May_25_1750,
/sounds/legit/right100.wav,right100,,,,1,3,9,5,,,,,,,,,,,,,,,right,0.486075162888,,,,,,,,,participant4,26,59.8136129567,male,trial,2017_May_25_1750,
/sounds/legit/right35.wav,right30,,,,1,4,10,3,,,,,,,,,,,,,,,right,0.602630853653,,,,,,,,,participant4,26,59.8136129567,male,trial,2017_May_25_1750,
/sounds/legit/left100.wav,left100,,,,1,5,11,0,,,,,,,,,,,,,,,left,0.285070896149,,,,,,,,,participant4,26,59.8136129567,male,trial,2017_May_25_1750,
/sounds/legit/right100.wav,right100,,,,2,0,12,5,,,,,,,,,,,,,,,right,0.635817050934,,,,,,,,,participant4,26,59.8136129567,male,trial,2017_May_25_1750,
/sounds/legit/right70.wav,right60,,,,2,1,13,4,,,,,,,,,,,,,,,right,0.686172008514,,,,,,,,,participant4,26,59.8136129567,male,trial,2017_May_25_1750,
/sounds/legit/left100.wav,left100,,,,2,2,14,0,,,,,,,,,,,,,,,left,0.318450212479,,,,,,,,,participant4,26,59.8136129567,male,trial,2017_May_25_1750,
/sounds/legit/left35.wav,left30,,,,2,3,15,2,,,,,,,,,,,,,,,left,0.418776988983,,,,,,,,,participant4,26,59.8136129567,male,trial,2017_May_25_1750,
/sounds/legit/left70.wav,left60,,,,2,4,16,1,,,,,,,,,,,,,,,left,0.418854951859,,,,,,,,,participant4,26,59.8136129567,male,trial,2017_May_25_1750,
/sounds/legit/right35.wav,right30,,,,2,5,17,3,,,,,,,,,,,,,,,right,0.502504825592,,,,,,,,,participant4,26,59.8136129567,male,trial,2017_May_25_1750,
/sounds/legit/left100.wav,left100,,,,3,0,18,0,,,,,,,,,,,,,,,left,0.502490997314,,,,,,,,,participant4,26,59.8136129567,male,trial,2017_May_25_1750,
/sounds/legit/right100.wav,right100,,,,3,1,19,5,,,,,,,,,,,,,,,right,0.352277994156,,,,,,,,,participant4,26,59.8136129567,male,trial,2017_May_25_1750,
/sounds/legit/right35.wav,right30,,,,3,2,20,3,,,,,,,,,,,,,,,right,0.58593082428,,,,,,,,,participant4,26,59.8136129567,male,trial,2017_May_25_1750,
/sounds/legit/left35.wav,left30,,,,3,3,21,2,,,,,,,,,,,,,,,left,0.736041069031,,,,,,,,,participant4,26,59.8136129567,male,trial,2017_May_25_1750,
/sounds/legit/right70.wav,right60,,,,3,4,22,4,,,,,,,,,,,,,,,right,0.251873016357,,,,,,,,,participant4,26,59.8136129567,male,trial,2017_May_25_1750,
/sounds/legit/left70.wav,left60,,,,3,5,23,1,,,,,,,,,,,,,,,left,0.218436002731,,,,,,,,,participant4,26,59.8136129567,male,trial,2017_May_25_1750,
/sounds/legit/right70.wav,right60,,,,4,0,24,4,,,,,,,,,,,,,,,right,0.168373823166,,,,,,,,,participant4,26,59.8136129567,male,trial,2017_May_25_1750,
/sounds/legit/left100.wav,left100,,,,4,1,25,0,,,,,,,,,,,,,,,left,0.135185003281,,,,,,,,,participant4,26,59.8136129567,male,trial,2017_May_25_1750,
/sounds/legit/left70.wav,left60,,,,4,2,26,1,,,,,,,,,,,,,,,left,0.268644809723,,,,,,,,,participant4,26,59.8136129567,male,trial,2017_May_25_1750,
/sounds/legit/left35.wav,left30,,,,4,3,27,2,,,,,,,,,,,,,,,left,0.201946973801,,,,,,,,,participant4,26,59.8136129567,male,trial,2017_May_25_1750,
/sounds/legit/right100.wav,right100,,,,4,4,28,5,,,,,,,,,,,,,,,right,0.11735701561,,,,,,,,,participant4,26,59.8136129567,male,trial,2017_May_25_1750,
/sounds/legit/right35.wav,right30,,,,4,5,29,3,,,,,,,,,,,,,,,left,0.318568944931,,,,,,,,,participant4,26,59.8136129567,male,trial,2017_May_25_1750,
/sounds/legit/right70.wav,right60,,,,5,0,30,4,,,,,,,,,,,,,,,right,0.151692867279,,,,,,,,,participant4,26,59.8136129567,male,trial,2017_May_25_1750,
/sounds/legit/left35.wav,left30,,,,5,1,31,2,,,,,,,,,,,,,,,left,0.31870508194,,,,,,,,,participant4,26,59.8136129567,male,trial,2017_May_25_1750,
/sounds/legit/right35.wav,right30,,,,5,2,32,3,,,,,,,,,,,,,,,left,0.251785039902,,,,,,,,,participant4,26,59.8136129567,male,trial,2017_May_25_1750,
/sounds/legit/left70.wav,left60,,,,5,3,33,1,,,,,,,,,,,,,,,left,0.184973955154,,,,,,,,,participant4,26,59.8136129567,male,trial,2017_May_25_1750,
/sounds/legit/right100.wav,right100,,,,5,4,34,5,,,,,,,,,,,,,,,right,0.134845972061,,,,,,,,,participant4,26,59.8136129567,male,trial,2017_May_25_1750,
/sounds/legit/left100.wav,left100,,,,5,5,35,0,,,,,,,,,,,,,,,left,0.218132972717,,,,,,,,,participant4,26,59.8136129567,male,trial,2017_May_25_1750,
/sounds/legit/left70.wav,left60,,,,6,0,36,1,,,,,,,,,,,,,,,left,0.335357189178,,,,,,,,,participant4,26,59.8136129567,male,trial,2017_May_25_1750,
/sounds/legit/right100.wav,right100,,,,6,1,37,5,,,,,,,,,,,,,,,right,0.201864957809,,,,,,,,,participant4,26,59.8136129567,male,trial,2017_May_25_1750,
/sounds/legit/right35.wav,right30,,,,6,2,38,3,,,,,,,,,,,,,,,right,0.218502998352,,,,,,,,,participant4,26,59.8136129567,male,trial,2017_May_25_1750,
/sounds/legit/right70.wav,right60,,,,6,3,39,4,,,,,,,,,,,,,,,right,0.0511820316315,,,,,,,,,participant4,26,59.8136129567,male,trial,2017_May_25_1750,
/sounds/legit/left35.wav,left30,,,,6,4,40,2,,,,,,,,,,,,,,,left,0.368605136871,,,,,,,,,participant4,26,59.8136129567,male,trial,2017_May_25_1750,
/sounds/legit/left100.wav,left100,,,,6,5,41,0,,,,,,,,,,,,,,,left,0.134929895401,,,,,,,,,participant4,26,59.8136129567,male,trial,2017_May_25_1750,
/sounds/legit/right100.wav,right100,,,,7,0,42,5,,,,,,,,,,,,,,,right,0.118140935898,,,,,,,,,participant4,26,59.8136129567,male,trial,2017_May_25_1750,
/sounds/legit/left100.wav,left100,,,,7,1,43,0,,,,,,,,,,,,,,,left,0.168559074402,,,,,,,,,participant4,26,59.8136129567,male,trial,2017_May_25_1750,
/sounds/legit/right35.wav,right30,,,,7,2,44,3,,,,,,,,,,,,,,,left,0.23415184021,,,,,,,,,participant4,26,59.8136129567,male,trial,2017_May_25_1750,
/sounds/legit/right70.wav,right60,,,,7,3,45,4,,,,,,,,,,,,,,,right,0.65288901329,,,,,,,,,participant4,26,59.8136129567,male,trial,2017_May_25_1750,
/sounds/legit/left70.wav,left60,,,,7,4,46,1,,,,,,,,,,,,,,,left,0.68617105484,,,,,,,,,participant4,26,59.8136129567,male,trial,2017_May_25_1750,
/sounds/legit/left35.wav,left30,,,,7,5,47,2,,,,,,,,,,,,,,,left,0.15146112442,,,,,,,,,participant4,26,59.8136129567,male,trial,2017_May_25_1750,
/sounds/legit/left70.wav,left60,,,,8,0,48,1,,,,,,,,,,,,,,,left,0.201771974564,,,,,,,,,participant4,26,59.8136129567,male,trial,2017_May_25_1750,
/sounds/legit/right35.wav,right30,,,,8,1,49,3,,,,,,,,,,,,,,,left,0.151645898819,,,,,,,,,participant4,26,59.8136129567,male,trial,2017_May_25_1750,
/sounds/legit/right100.wav,right100,,,,8,2,50,5,,,,,,,,,,,,,,,right,0.151517868042,,,,,,,,,participant4,26,59.8136129567,male,trial,2017_May_25_1750,
/sounds/legit/left100.wav,left100,,,,8,3,51,0,,,,,,,,,,,,,,,left,0.0849368572235,,,,,,,,,participant4,26,59.8136129567,male,trial,2017_May_25_1750,
/sounds/legit/right70.wav,right60,,,,8,4,52,4,,,,,,,,,,,,,,,right,0.185359954834,,,,,,,,,participant4,26,59.8136129567,male,trial,2017_May_25_1750,
/sounds/legit/left35.wav,left30,,,,8,5,53,2,,,,,,,,,,,,,,,left,0.0848109722137,,,,,,,,,participant4,26,59.8136129567,male,trial,2017_May_25_1750,
/sounds/legit/right70.wav,right60,,,,9,0,54,4,,,,,,,,,,,,,,,right,0.118370056152,,,,,,,,,participant4,26,59.8136129567,male,trial,2017_May_25_1750,
/sounds/legit/right35.wav,right30,,,,9,1,55,3,,,,,,,,,,,,,,,left,0.452348947525,,,,,,,,,participant4,26,59.8136129567,male,trial,2017_May_25_1750,
/sounds/legit/right100.wav,right100,,,,9,2,56,5,,,,,,,,,,,,,,,right,0.101561069489,,,,,,,,,participant4,26,59.8136129567,male,trial,2017_May_25_1750,
/sounds/legit/left35.wav,left30,,,,9,3,57,2,,,,,,,,,,,,,,,left,0.118436098099,,,,,,,,,participant4,26,59.8136129567,male,trial,2017_May_25_1750,
/sounds/legit/left70.wav,left60,,,,9,4,58,1,,,,,,,,,,,,,,,left,0.0516769886017,,,,,,,,,participant4,26,59.8136129567,male,trial,2017_May_25_1750,
/sounds/legit/left100.wav,left100,,,,9,5,59,0,,,,,,,,,,,,,,,left,0.0672509670258,,,,,,,,,participant4,26,59.8136129567,male,trial,2017_May_25_1750,
,,,,,,,,,,,,,,,,,,,,,,,,,space,20.4777059555,,,,,,,participant4,26,59.8136129567,male,trial,2017_May_25_1750,
,,0.62,"[2.25, 0]",/sounds/legit/right30.wav,,,,,0,0,0,9,,,,,,,,,,,,,,,right,0.970176935196,,,,,participant4,26,59.8136129567,male,trial,2017_May_25_1750,
,,0.49,"[-6.75, 0]",/sounds/legit/left100.wav,,,,,0,1,1,33,,,,,,,,,,,,,,,left,0.402181148529,,,,,participant4,26,59.8136129567,male,trial,2017_May_25_1750,
,,0.23,"[-4.5, 0]",/sounds/legit/left60.wav,,,,,0,2,2,26,,,,,,,,,,,,,,,left,0.118330955505,,,,,participant4,26,59.8136129567,male,trial,2017_May_25_1750,
,,0.36,"[-4.5, 0]",/sounds/legit/left60.wav,,,,,0,3,3,27,,,,,,,,,,,,,,,left,0.135237932205,,,,,participant4,26,59.8136129567,male,trial,2017_May_25_1750,
,,0.1,"[0, 0]",/sounds/legit/equal.wav,,,,,0,4,4,0,,,,,,,,,,,,,,,right,0.702809810638,,,,,participant4,26,59.8136129567,male,trial,2017_May_25_1750,
,,0.49,"[6.75, 0]",/sounds/legit/right100.wav,,,,,0,5,5,18,,,,,,,,,,,,,,,right,0.134912967682,,,,,participant4,26,59.8136129567,male,trial,2017_May_25_1750,
,,0.36,"[2.25, 0]",/sounds/legit/right30.wav,,,,,0,6,6,7,,,,,,,,,,,,,,,right,0.201793909073,,,,,participant4,26,59.8136129567,male,trial,2017_May_25_1750,
,,0.23,"[-6.75, 0]",/sounds/legit/left100.wav,,,,,0,7,7,31,,,,,,,,,,,,,,,left,2.55693697929,,,,,participant4,26,59.8136129567,male,trial,2017_May_25_1750,
,,0.36,"[0, 0]",/sounds/legit/equal.wav,,,,,0,8,8,2,,,,,,,,,,,,,,,left,0.769865036011,,,,,participant4,26,59.8136129567,male,trial,2017_May_25_1750,
,,0.36,"[-6.75, 0]",/sounds/legit/left100.wav,,,,,0,9,9,32,,,,,,,,,,,,,,,left,0.585874795914,,,,,participant4,26,59.8136129567,male,trial,2017_May_25_1750,
,,0.62,"[0, 0]",/sounds/legit/equal.wav,,,,,0,10,10,4,,,,,,,,,,,,,,,left,0.218674898148,,,,,participant4,26,59.8136129567,male,trial,2017_May_25_1750,
,,0.49,"[-2.25, 0]",/sounds/legit/left30.wav,,,,,0,11,11,23,,,,,,,,,,,,,,,left,0.00141406059265,,,,,participant4,26,59.8136129567,male,trial,2017_May_25_1750,
,,0.23,"[6.75, 0]",/sounds/legit/right100.wav,,,,,0,12,12,16,,,,,,,,,,,,,,,right,3.00784111023,,,,,participant4,26,59.8136129567,male,trial,2017_May_25_1750,
,,0.23,"[-2.25, 0]",/sounds/legit/left30.wav,,,,,0,13,13,21,,,,,,,,,,,,,,,left,2.43998408318,,,,,participant4,26,59.8136129567,male,trial,2017_May_25_1750,
,,0.23,"[4.5, 0]",/sounds/legit/right60.wav,,,,,0,14,14,11,,,,,,,,,,,,,,,right,0.853162050247,,,,,participant4,26,59.8136129567,male,trial,2017_May_25_1750,
,,0.23,"[0, 0]",/sounds/legit/equal.wav,,,,,0,15,15,1,,,,,,,,,,,,,,,left,1.33792495728,,,,,participant4,26,59.8136129567,male,trial,2017_May_25_1750,
,,0.1,"[-6.75, 0]",/sounds/legit/left100.wav,,,,,0,16,16,30,,,,,,,,,,,,,,,left,1.28770399094,,,,,participant4,26,59.8136129567,male,trial,2017_May_25_1750,
,,0.36,"[-2.25, 0]",/sounds/legit/left30.wav,,,,,0,17,17,22,,,,,,,,,,,,,,,left,0.936592102051,,,,,participant4,26,59.8136129567,male,trial,2017_May_25_1750,
,,0.62,"[-2.25, 0]",/sounds/legit/left30.wav,,,,,0,18,18,24,,,,,,,,,,,,,,,left,0.920144081116,,,,,participant4,26,59.8136129567,male,trial,2017_May_25_1750,
,,0.49,"[4.5, 0]",/sounds/legit/right60.wav,,,,,0,19,19,13,,,,,,,,,,,,,,,right,3.67593812943,,,,,participant4,26,59.8136129567,male,trial,2017_May_25_1750,
,,0.49,"[-4.5, 0]",/sounds/legit/left60.wav,,,,,0,20,20,28,,,,,,,,,,,,,,,left,2.33975195885,,,,,participant4,26,59.8136129567,male,trial,2017_May_25_1750,
,,0.62,"[-6.75, 0]",/sounds/legit/left100.wav,,,,,0,21,21,34,,,,,,,,,,,,,,,left,0.819833993912,,,,,participant4,26,59.8136129567,male,trial,2017_May_25_1750,
,,0.36,"[4.5, 0]",/sounds/legit/right60.wav,,,,,0,22,22,12,,,,,,,,,,,,,,,right,0.820099115372,,,,,participant4,26,59.8136129567,male,trial,2017_May_25_1750,
,,0.1,"[-2.25, 0]",/sounds/legit/left30.wav,,,,,0,23,23,20,,,,,,,,,,,,,,,left,0.0346729755402,,,,,participant4,26,59.8136129567,male,trial,2017_May_25_1750,
,,0.49,"[2.25, 0]",/sounds/legit/right30.wav,,,,,0,24,24,8,,,,,,,,,,,,,,,right,1.40433883667,,,,,participant4,26,59.8136129567,male,trial,2017_May_25_1750,
,,0.49,"[0, 0]",/sounds/legit/equal.wav,,,,,0,25,25,3,,,,,,,,,,,,,,,right,0.70272898674,,,,,participant4,26,59.8136129567,male,trial,2017_May_25_1750,
,,0.62,"[6.75, 0]",/sounds/legit/right100.wav,,,,,0,26,26,19,,,,,,,,,,,,,,,right,1.32084202766,,,,,participant4,26,59.8136129567,male,trial,2017_May_25_1750,
,,0.1,"[-4.5, 0]",/sounds/legit/left60.wav,,,,,0,27,27,25,,,,,,,,,,,,,,,left,0.536062002182,,,,,participant4,26,59.8136129567,male,trial,2017_May_25_1750,
,,0.1,"[2.25, 0]",/sounds/legit/right30.wav,,,,,0,28,28,5,,,,,,,,,,,,,,,right,0.519102096558,,,,,participant4,26,59.8136129567,male,trial,2017_May_25_1750,
,,0.36,"[6.75, 0]",/sounds/legit/right100.wav,,,,,0,29,29,17,,,,,,,,,,,,,,,right,0.218428134918,,,,,participant4,26,59.8136129567,male,trial,2017_May_25_1750,
,,0.23,"[2.25, 0]",/sounds/legit/right30.wav,,,,,0,30,30,6,,,,,,,,,,,,,,,right,0.351943016052,,,,,participant4,26,59.8136129567,male,trial,2017_May_25_1750,
,,0.62,"[4.5, 0]",/sounds/legit/right60.wav,,,,,0,31,31,14,,,,,,,,,,,,,,,right,0.485839128494,,,,,participant4,26,59.8136129567,male,trial,2017_May_25_1750,
,,0.1,"[6.75, 0]",/sounds/legit/right100.wav,,,,,0,32,32,15,,,,,,,,,,,,,,,right,2.35635495186,,,,,participant4,26,59.8136129567,male,trial,2017_May_25_1750,
,,0.62,"[-4.5, 0]",/sounds/legit/left60.wav,,,,,0,33,33,29,,,,,,,,,,,,,,,left,0.786505937576,,,,,participant4,26,59.8136129567,male,trial,2017_May_25_1750,
,,0.1,"[4.5, 0]",/sounds/legit/right60.wav,,,,,0,34,34,10,,,,,,,,,,,,,,,right,0.201657056808,,,,,participant4,26,59.8136129567,male,trial,2017_May_25_1750,
,,0.36,"[6.75, 0]",/sounds/legit/right100.wav,,,,,1,0,35,17,,,,,,,,,,,,,,,right,2.80734300613,,,,,participant4,26,59.8136129567,male,trial,2017_May_25_1750,
,,0.1,"[0, 0]",/sounds/legit/equal.wav,,,,,1,1,36,0,,,,,,,,,,,,,,,right,1.73858618736,,,,,participant4,26,59.8136129567,male,trial,2017_May_25_1750,
,,0.36,"[2.25, 0]",/sounds/legit/right30.wav,,,,,1,2,37,7,,,,,,,,,,,,,,,right,0.669361114502,,,,,participant4,26,59.8136129567,male,trial,2017_May_25_1750,
,,0.23,"[6.75, 0]",/sounds/legit/right100.wav,,,,,1,3,38,16,,,,,,,,,,,,,,,right,0.535960912704,,,,,participant4,26,59.8136129567,male,trial,2017_May_25_1750,
,,0.23,"[-6.75, 0]",/sounds/legit/left100.wav,,,,,1,4,39,31,,,,,,,,,,,,,,,left,0.38514995575,,,,,participant4,26,59.8136129567,male,trial,2017_May_25_1750,
,,0.1,"[6.75, 0]",/sounds/legit/right100.wav,,,,,1,5,40,15,,,,,,,,,,,,,,,right,0.201930046082,,,,,participant4,26,59.8136129567,male,trial,2017_May_25_1750,
,,0.23,"[-2.25, 0]",/sounds/legit/left30.wav,,,,,1,6,41,21,,,,,,,,,,,,,,,left,0.402220964432,,,,,participant4,26,59.8136129567,male,trial,2017_May_25_1750,
,,0.49,"[-6.75, 0]",/sounds/legit/left100.wav,,,,,1,7,42,33,,,,,,,,,,,,,,,left,0.452506780624,,,,,participant4,26,59.8136129567,male,trial,2017_May_25_1750,
,,0.36,"[-4.5, 0]",/sounds/legit/left60.wav,,,,,1,8,43,27,,,,,,,,,,,,,,,left,0.435657978058,,,,,participant4,26,59.8136129567,male,trial,2017_May_25_1750,
,,0.1,"[4.5, 0]",/sounds/legit/right60.wav,,,,,1,9,44,10,,,,,,,,,,,,,,,right,0.302221775055,,,,,participant4,26,59.8136129567,male,trial,2017_May_25_1750,
,,0.36,"[4.5, 0]",/sounds/legit/right60.wav,,,,,1,10,45,12,,,,,,,,,,,,,,,right,0.135040044785,,,,,participant4,26,59.8136129567,male,trial,2017_May_25_1750,
,,0.62,"[4.5, 0]",/sounds/legit/right60.wav,,,,,1,11,46,14,,,,,,,,,,,,,,,right,0.368860960007,,,,,participant4,26,59.8136129567,male,trial,2017_May_25_1750,
,,0.23,"[2.25, 0]",/sounds/legit/right30.wav,,,,,1,12,47,6,,,,,,,,,,,,,,,right,0.418844938278,,,,,participant4,26,59.8136129567,male,trial,2017_May_25_1750,
,,0.49,"[2.25, 0]",/sounds/legit/right30.wav,,,,,1,13,48,8,,,,,,,,,,,,,,,right,0.33541893959,,,,,participant4,26,59.8136129567,male,trial,2017_May_25_1750,
,,0.23,"[4.5, 0]",/sounds/legit/right60.wav,,,,,1,14,49,11,,,,,,,,,,,,,,,right,0.302085161209,,,,,participant4,26,59.8136129567,male,trial,2017_May_25_1750,
,,0.1,"[-6.75, 0]",/sounds/legit/left100.wav,,,,,1,15,50,30,,,,,,,,,,,,,,,left,0.368682146072,,,,,participant4,26,59.8136129567,male,trial,2017_May_25_1750,
,,0.1,"[-2.25, 0]",/sounds/legit/left30.wav,,,,,1,16,51,20,,,,,,,,,,,,,,,left,0.468903064728,,,,,participant4,26,59.8136129567,male,trial,2017_May_25_1750,
,,0.49,"[-2.25, 0]",/sounds/legit/left30.wav,,,,,1,17,52,23,,,,,,,,,,,,,,,left,0.435875892639,,,,,participant4,26,59.8136129567,male,trial,2017_May_25_1750,
,,0.36,"[-6.75, 0]",/sounds/legit/left100.wav,,,,,1,18,53,32,,,,,,,,,,,,,,,left,0.0848851203918,,,,,participant4,26,59.8136129567,male,trial,2017_May_25_1750,
,,0.36,"[-2.25, 0]",/sounds/legit/left30.wav,,,,,1,19,54,22,,,,,,,,,,,,,,,left,0.118487119675,,,,,participant4,26,59.8136129567,male,trial,2017_May_25_1750,
,,0.62,"[0, 0]",/sounds/legit/equal.wav,,,,,1,20,55,4,,,,,,,,,,,,,,,left,0.719624996185,,,,,participant4,26,59.8136129567,male,trial,2017_May_25_1750,
,,0.1,"[2.25, 0]",/sounds/legit/right30.wav,,,,,1,21,56,5,,,,,,,,,,,,,,,right,0.452324867249,,,,,participant4,26,59.8136129567,male,trial,2017_May_25_1750,
,,0.62,"[-6.75, 0]",/sounds/legit/left100.wav,,,,,1,22,57,34,,,,,,,,,,,,,,,left,0.285223007202,,,,,participant4,26,59.8136129567,male,trial,2017_May_25_1750,
,,0.62,"[-4.5, 0]",/sounds/legit/left60.wav,,,,,1,23,58,29,,,,,,,,,,,,,,,left,0.235249996185,,,,,participant4,26,59.8136129567,male,trial,2017_May_25_1750,
,,0.36,"[0, 0]",/sounds/legit/equal.wav,,,,,1,24,59,2,,,,,,,,,,,,,,,left,0.736361980438,,,,,participant4,26,59.8136129567,male,trial,2017_May_25_1750,
,,0.23,"[0, 0]",/sounds/legit/equal.wav,,,,,1,25,60,1,,,,,,,,,,,,,,,left,0.335332155228,,,,,participant4,26,59.8136129567,male,trial,2017_May_25_1750,
,,0.62,"[-2.25, 0]",/sounds/legit/left30.wav,,,,,1,26,61,24,,,,,,,,,,,,,,,left,3.04117012024,,,,,participant4,26,59.8136129567,male,trial,2017_May_25_1750,
,,0.49,"[6.75, 0]",/sounds/legit/right100.wav,,,,,1,27,62,18,,,,,,,,,,,,,,,right,0.00134682655334,,,,,participant4,26,59.8136129567,male,trial,2017_May_25_1750,
,,0.1,"[-4.5, 0]",/sounds/legit/left60.wav,,,,,1,28,63,25,,,,,,,,,,,,,,,left,0.368844032288,,,,,participant4,26,59.8136129567,male,trial,2017_May_25_1750,
,,0.49,"[0, 0]",/sounds/legit/equal.wav,,,,,1,29,64,3,,,,,,,,,,,,,,,left,0.235122919083,,,,,participant4,26,59.8136129567,male,trial,2017_May_25_1750,
,,0.49,"[4.5, 0]",/sounds/legit/right60.wav,,,,,1,30,65,13,,,,,,,,,,,,,,,right,0.468869924545,,,,,participant4,26,59.8136129567,male,trial,2017_May_25_1750,
,,0.49,"[-4.5, 0]",/sounds/legit/left60.wav,,,,,1,31,66,28,,,,,,,,,,,,,,,left,0.385912895203,,,,,participant4,26,59.8136129567,male,trial,2017_May_25_1750,
,,0.23,"[-4.5, 0]",/sounds/legit/left60.wav,,,,,1,32,67,26,,,,,,,,,,,,,,,left,0.435255050659,,,,,participant4,26,59.8136129567,male,trial,2017_May_25_1750,
,,0.62,"[6.75, 0]",/sounds/legit/right100.wav,,,,,1,33,68,19,,,,,,,,,,,,,,,right,0.0178818702698,,,,,participant4,26,59.8136129567,male,trial,2017_May_25_1750,
,,0.62,"[2.25, 0]",/sounds/legit/right30.wav,,,,,1,34,69,9,,,,,,,,,,,,,,,right,0.168160200119,,,,,participant4,26,59.8136129567,male,trial,2017_May_25_1750,
,,0.62,"[-4.5, 0]",/sounds/legit/left60.wav,,,,,2,0,70,29,,,,,,,,,,,,,,,left,0.318770170212,,,,,participant4,26,59.8136129567,male,trial,2017_May_25_1750,
,,0.49,"[2.25, 0]",/sounds/legit/right30.wav,,,,,2,1,71,8,,,,,,,,,,,,,,,right,4.81190085411,,,,,participant4,26,59.8136129567,male,trial,2017_May_25_1750,
,,0.49,"[6.75, 0]",/sounds/legit/right100.wav,,,,,2,2,72,18,,,,,,,,,,,,,,,right,0.719309091568,,,,,participant4,26,59.8136129567,male,trial,2017_May_25_1750,
,,0.23,"[0, 0]",/sounds/legit/equal.wav,,,,,2,3,73,1,,,,,,,,,,,,,,,right,3.84333992004,,,,,participant4,26,59.8136129567,male,trial,2017_May_25_1750,
,,0.62,"[4.5, 0]",/sounds/legit/right60.wav,,,,,2,4,74,14,,,,,,,,,,,,,,,right,2.03899002075,,,,,participant4,26,59.8136129567,male,trial,2017_May_25_1750,
,,0.36,"[6.75, 0]",/sounds/legit/right100.wav,,,,,2,5,75,17,,,,,,,,,,,,,,,right,1.17051386833,,,,,participant4,26,59.8136129567,male,trial,2017_May_25_1750,
,,0.49,"[4.5, 0]",/sounds/legit/right60.wav,,,,,2,6,76,13,,,,,,,,,,,,,,,right,0.0681328773499,,,,,participant4,26,59.8136129567,male,trial,2017_May_25_1750,
,,0.1,"[-4.5, 0]",/sounds/legit/left60.wav,,,,,2,7,77,25,,,,,,,,,,,,,,,left,0.669825077057,,,,,participant4,26,59.8136129567,male,trial,2017_May_25_1750,
,,0.23,"[2.25, 0]",/sounds/legit/right30.wav,,,,,2,8,78,6,,,,,,,,,,,,,,,right,0.302019834518,,,,,participant4,26,59.8136129567,male,trial,2017_May_25_1750,
,,0.1,"[6.75, 0]",/sounds/legit/right100.wav,,,,,2,9,79,15,,,,,,,,,,,,,,,right,2.97412395477,,,,,participant4,26,59.8136129567,male,trial,2017_May_25_1750,
,,0.49,"[-4.5, 0]",/sounds/legit/left60.wav,,,,,2,10,80,28,,,,,,,,,,,,,,,left,0.018315076828,,,,,participant4,26,59.8136129567,male,trial,2017_May_25_1750,
,,0.23,"[-4.5, 0]",/sounds/legit/left60.wav,,,,,2,11,81,26,,,,,,,,,,,,,,,left,0.685966968536,,,,,participant4,26,59.8136129567,male,trial,2017_May_25_1750,
,,0.62,"[2.25, 0]",/sounds/legit/right30.wav,,,,,2,12,82,9,,,,,,,,,,,,,,,right,4.8283829689,,,,,participant4,26,59.8136129567,male,trial,2017_May_25_1750,
,,0.36,"[4.5, 0]",/sounds/legit/right60.wav,,,,,2,13,83,12,,,,,,,,,,,,,,,right,2.89090394974,,,,,participant4,26,59.8136129567,male,trial,2017_May_25_1750,
,,0.36,"[-4.5, 0]",/sounds/legit/left60.wav,,,,,2,14,84,27,,,,,,,,,,,,,,,left,2.60679292679,,,,,participant4,26,59.8136129567,male,trial,2017_May_25_1750,
,,0.23,"[-2.25, 0]",/sounds/legit/left30.wav,,,,,2,15,85,21,,,,,,,,,,,,,,,left,0.502362966537,,,,,participant4,26,59.8136129567,male,trial,2017_May_25_1750,
,,0.49,"[-2.25, 0]",/sounds/legit/left30.wav,,,,,2,16,86,23,,,,,,,,,,,,,,,left,0.652618169785,,,,,participant4,26,59.8136129567,male,trial,2017_May_25_1750,
,,0.62,"[6.75, 0]",/sounds/legit/right100.wav,,,,,2,17,87,19,,,,,,,,,,,,,,,right,1.28641414642,,,,,participant4,26,59.8136129567,male,trial,2017_May_25_1750,
,,0.1,"[0, 0]",/sounds/legit/equal.wav,,,,,2,18,88,0,,,,,,,,,,,,,,,left,0.585722923279,,,,,participant4,26,59.8136129567,male,trial,2017_May_25_1750,
,,0.1,"[4.5, 0]",/sounds/legit/right60.wav,,,,,2,19,89,10,,,,,,,,,,,,,,,right,0.569338083267,,,,,participant4,26,59.8136129567,male,trial,2017_May_25_1750,
,,0.23,"[6.75, 0]",/sounds/legit/right100.wav,,,,,2,20,90,16,,,,,,,,,,,,,,,right,0.268665075302,,,,,participant4,26,59.8136129567,male,trial,2017_May_25_1750,
,,0.36,"[-2.25, 0]",/sounds/legit/left30.wav,,,,,2,21,91,22,,,,,,,,,,,,,,,left,0.318563938141,,,,,participant4,26,59.8136129567,male,trial,2017_May_25_1750,
,,0.36,"[0, 0]",/sounds/legit/equal.wav,,,,,2,22,92,2,,,,,,,,,,,,,,,right,0.252068996429,,,,,participant4,26,59.8136129567,male,trial,2017_May_25_1750,
,,0.62,"[0, 0]",/sounds/legit/equal.wav,,,,,2,23,93,4,,,,,,,,,,,,,,,right,0.419434070587,,,,,participant4,26,59.8136129567,male,trial,2017_May_25_1750,
,,0.23,"[4.5, 0]",/sounds/legit/right60.wav,,,,,2,24,94,11,,,,,,,,,,,,,,,right,0.00136184692383,,,,,participant4,26,59.8136129567,male,trial,2017_May_25_1750,
,,0.62,"[-6.75, 0]",/sounds/legit/left100.wav,,,,,2,25,95,34,,,,,,,,,,,,,,,left,0.519146203995,,,,,participant4,26,59.8136129567,male,trial,2017_May_25_1750,
,,0.1,"[-6.75, 0]",/sounds/legit/left100.wav,,,,,2,26,96,30,,,,,,,,,,,,,,,left,0.953371047974,,,,,participant4,26,59.8136129567,male,trial,2017_May_25_1750,
,,0.1,"[2.25, 0]",/sounds/legit/right30.wav,,,,,2,27,97,5,,,,,,,,,,,,,,,right,2.89091205597,,,,,participant4,26,59.8136129567,male,trial,2017_May_25_1750,
,,0.62,"[-2.25, 0]",/sounds/legit/left30.wav,,,,,2,28,98,24,,,,,,,,,,,,,,,left,0.0513350963593,,,,,participant4,26,59.8136129567,male,trial,2017_May_25_1750,
,,0.36,"[-6.75, 0]",/sounds/legit/left100.wav,,,,,2,29,99,32,,,,,,,,,,,,,,,left,0.702807188034,,,,,participant4,26,59.8136129567,male,trial,2017_May_25_1750,
,,0.49,"[-6.75, 0]",/sounds/legit/left100.wav,,,,,2,30,100,33,,,,,,,,,,,,,,,left,0.435663938522,,,,,participant4,26,59.8136129567,male,trial,2017_May_25_1750,
,,0.36,"[2.25, 0]",/sounds/legit/right30.wav,,,,,2,31,101,7,,,,,,,,,,,,,,,right,3.0412671566,,,,,participant4,26,59.8136129567,male,trial,2017_May_25_1750,
,,0.23,"[-6.75, 0]",/sounds/legit/left100.wav,,,,,2,32,102,31,,,,,,,,,,,,,,,left,0.335497140884,,,,,participant4,26,59.8136129567,male,trial,2017_May_25_1750,
,,0.49,"[0, 0]",/sounds/legit/equal.wav,,,,,2,33,103,3,,,,,,,,,,,,,,,right,0.0186829566956,,,,,participant4,26,59.8136129567,male,trial,2017_May_25_1750,
,,0.1,"[-2.25, 0]",/sounds/legit/left30.wav,,,,,2,34,104,20,,,,,,,,,,,,,,,left,1.40437412262,,,,,participant4,26,59.8136129567,male,trial,2017_May_25_1750,
,,0.36,"[4.5, 0]",/sounds/legit/right60.wav,,,,,3,0,105,12,,,,,,,,,,,,,,,right,0.435548067093,,,,,participant4,26,59.8136129567,male,trial,2017_May_25_1750,
,,0.49,"[2.25, 0]",/sounds/legit/right30.wav,,,,,3,1,106,8,,,,,,,,,,,,,,,right,0.151563882828,,,,,participant4,26,59.8136129567,male,trial,2017_May_25_1750,
,,0.36,"[2.25, 0]",/sounds/legit/right30.wav,,,,,3,2,107,7,,,,,,,,,,,,,,,right,0.519021987915,,,,,participant4,26,59.8136129567,male,trial,2017_May_25_1750,
,,0.36,"[0, 0]",/sounds/legit/equal.wav,,,,,3,3,108,2,,,,,,,,,,,,,,,left,0.669285058975,,,,,participant4,26,59.8136129567,male,trial,2017_May_25_1750,
,,0.23,"[6.75, 0]",/sounds/legit/right100.wav,,,,,3,4,109,16,,,,,,,,,,,,,,,right,0.485707998276,,,,,participant4,26,59.8136129567,male,trial,2017_May_25_1750,
,,0.1,"[4.5, 0]",/sounds/legit/right60.wav,,,,,3,5,110,10,,,,,,,,,,,,,,,right,0.00134706497192,,,,,participant4,26,59.8136129567,male,trial,2017_May_25_1750,
,,0.49,"[0, 0]",/sounds/legit/equal.wav,,,,,3,6,111,3,,,,,,,,,,,,,,,left,0.719810009003,,,,,participant4,26,59.8136129567,male,trial,2017_May_25_1750,
,,0.36,"[-2.25, 0]",/sounds/legit/left30.wav,,,,,3,7,112,22,,,,,,,,,,,,,,,left,0.469081163406,,,,,participant4,26,59.8136129567,male,trial,2017_May_25_1750,
,,0.62,"[6.75, 0]",/sounds/legit/right100.wav,,,,,3,8,113,19,,,,,,,,,,,,,,,right,0.251800060272,,,,,participant4,26,59.8136129567,male,trial,2017_May_25_1750,
,,0.49,"[-4.5, 0]",/sounds/legit/left60.wav,,,,,3,9,114,28,,,,,,,,,,,,,,,left,0.100605964661,,,,,participant4,26,59.8136129567,male,trial,2017_May_25_1750,
,,0.1,"[-2.25, 0]",/sounds/legit/left30.wav,,,,,3,10,115,20,,,,,,,,,,,,,,,left,0.518381118774,,,,,participant4,26,59.8136129567,male,trial,2017_May_25_1750,
,,0.36,"[-4.5, 0]",/sounds/legit/left60.wav,,,,,3,11,116,27,,,,,,,,,,,,,,,left,0.38537812233,,,,,participant4,26,59.8136129567,male,trial,2017_May_25_1750,
,,0.62,"[2.25, 0]",/sounds/legit/right30.wav,,,,,3,12,117,9,,,,,,,,,,,,,,,right,0.452435970306,,,,,participant4,26,59.8136129567,male,trial,2017_May_25_1750,
,,0.49,"[-6.75, 0]",/sounds/legit/left100.wav,,,,,3,13,118,33,,,,,,,,,,,,,,,left,0.0514888763428,,,,,participant4,26,59.8136129567,male,trial,2017_May_25_1750,
,,0.49,"[6.75, 0]",/sounds/legit/right100.wav,,,,,3,14,119,18,,,,,,,,,,,,,,,right,0.435652971268,,,,,participant4,26,59.8136129567,male,trial,2017_May_25_1750,
,,0.1,"[0, 0]",/sounds/legit/equal.wav,,,,,3,15,120,0,,,,,,,,,,,,,,,left,0.335592031479,,,,,participant4,26,59.8136129567,male,trial,2017_May_25_1750,
,,0.62,"[4.5, 0]",/sounds/legit/right60.wav,,,,,3,16,121,14,,,,,,,,,,,,,,,right,0.369042158127,,,,,participant4,26,59.8136129567,male,trial,2017_May_25_1750,
,,0.1,"[2.25, 0]",/sounds/legit/right30.wav,,,,,3,17,122,5,,,,,,,,,,,,,,,right,0.251963853836,,,,,participant4,26,59.8136129567,male,trial,2017_May_25_1750,
,,0.62,"[-4.5, 0]",/sounds/legit/left60.wav,,,,,3,18,123,29,,,,,,,,,,,,,,,left,0.0512390136719,,,,,participant4,26,59.8136129567,male,trial,2017_May_25_1750,
,,0.23,"[4.5, 0]",/sounds/legit/right60.wav,,,,,3,19,124,11,,,,,,,,,,,,,,,right,3.17496418953,,,,,participant4,26,59.8136129567,male,trial,2017_May_25_1750,
,,0.1,"[6.75, 0]",/sounds/legit/right100.wav,,,,,3,20,125,15,,,,,,,,,,,,,,,right,0.435480833054,,,,,participant4,26,59.8136129567,male,trial,2017_May_25_1750,
,,0.62,"[-2.25, 0]",/sounds/legit/left30.wav,,,,,3,21,126,24,,,,,,,,,,,,,,,left,0.268597841263,,,,,participant4,26,59.8136129567,male,trial,2017_May_25_1750,
,,0.62,"[-6.75, 0]",/sounds/legit/left100.wav,,,,,3,22,127,34,,,,,,,,,,,,,,,left,0.250877857208,,,,,participant4,26,59.8136129567,male,trial,2017_May_25_1750,
,,0.23,"[-6.75, 0]",/sounds/legit/left100.wav,,,,,3,23,128,31,,,,,,,,,,,,,,,left,0.903320074081,,,,,participant4,26,59.8136129567,male,trial,2017_May_25_1750,
,,0.23,"[-2.25, 0]",/sounds/legit/left30.wav,,,,,3,24,129,21,,,,,,,,,,,,,,,left,0.335314035416,,,,,participant4,26,59.8136129567,male,trial,2017_May_25_1750,
,,0.62,"[0, 0]",/sounds/legit/equal.wav,,,,,3,25,130,4,,,,,,,,,,,,,,,left,0.419198989868,,,,,participant4,26,59.8136129567,male,trial,2017_May_25_1750,
,,0.49,"[-2.25, 0]",/sounds/legit/left30.wav,,,,,3,26,131,23,,,,,,,,,,,,,,,left,0.31863117218,,,,,participant4,26,59.8136129567,male,trial,2017_May_25_1750,
,,0.36,"[6.75, 0]",/sounds/legit/right100.wav,,,,,3,27,132,17,,,,,,,,,,,,,,,right,0.48556804657,,,,,participant4,26,59.8136129567,male,trial,2017_May_25_1750,
,,0.23,"[-4.5, 0]",/sounds/legit/left60.wav,,,,,3,28,133,26,,,,,,,,,,,,,,,left,0.385293960571,,,,,participant4,26,59.8136129567,male,trial,2017_May_25_1750,
,,0.23,"[2.25, 0]",/sounds/legit/right30.wav,,,,,3,29,134,6,,,,,,,,,,,,,,,right,0.118392944336,,,,,participant4,26,59.8136129567,male,trial,2017_May_25_1750,
,,0.49,"[4.5, 0]",/sounds/legit/right60.wav,,,,,3,30,135,13,,,,,,,,,,,,,,,right,0.502285003662,,,,,participant4,26,59.8136129567,male,trial,2017_May_25_1750,
,,0.23,"[0, 0]",/sounds/legit/equal.wav,,,,,3,31,136,1,,,,,,,,,,,,,,,left,0.652668952942,,,,,participant4,26,59.8136129567,male,trial,2017_May_25_1750,
,,0.1,"[-6.75, 0]",/sounds/legit/left100.wav,,,,,3,32,137,30,,,,,,,,,,,,,,,left,0.485705137253,,,,,participant4,26,59.8136129567,male,trial,2017_May_25_1750,
,,0.1,"[-4.5, 0]",/sounds/legit/left60.wav,,,,,3,33,138,25,,,,,,,,,,,,,,,left,0.870218992233,,,,,participant4,26,59.8136129567,male,trial,2017_May_25_1750,
,,0.36,"[-6.75, 0]",/sounds/legit/left100.wav,,,,,3,34,139,32,,,,,,,,,,,,,,,left,0.335349082947,,,,,participant4,26,59.8136129567,male,trial,2017_May_25_1750,
,,0.49,"[6.75, 0]",/sounds/legit/right100.wav,,,,,4,0,140,18,,,,,,,,,,,,,,,right,0.218286037445,,,,,participant4,26,59.8136129567,male,trial,2017_May_25_1750,
,,0.1,"[-2.25, 0]",/sounds/legit/left30.wav,,,,,4,1,141,20,,,,,,,,,,,,,,,left,0.0180900096893,,,,,participant4,26,59.8136129567,male,trial,2017_May_25_1750,
,,0.62,"[4.5, 0]",/sounds/legit/right60.wav,,,,,4,2,142,14,,,,,,,,,,,,,,,right,0.268435001373,,,,,participant4,26,59.8136129567,male,trial,2017_May_25_1750,
,,0.23,"[2.25, 0]",/sounds/legit/right30.wav,,,,,4,3,143,6,,,,,,,,,,,,,,,right,0.302452087402,,,,,participant4,26,59.8136129567,male,trial,2017_May_25_1750,
,,0.49,"[-2.25, 0]",/sounds/legit/left30.wav,,,,,4,4,144,23,,,,,,,,,,,,,,,left,0.302407979965,,,,,participant4,26,59.8136129567,male,trial,2017_May_25_1750,
,,0.36,"[2.25, 0]",/sounds/legit/right30.wav,,,,,4,5,145,7,,,,,,,,,,,,,,,right,0.218212127686,,,,,participant4,26,59.8136129567,male,trial,2017_May_25_1750,
,,0.1,"[-4.5, 0]",/sounds/legit/left60.wav,,,,,4,6,146,25,,,,,,,,,,,,,,,left,2.23944115639,,,,,participant4,26,59.8136129567,male,trial,2017_May_25_1750,
,,0.62,"[6.75, 0]",/sounds/legit/right100.wav,,,,,4,7,147,19,,,,,,,,,,,,,,,right,3.15812206268,,,,,participant4,26,59.8136129567,male,trial,2017_May_25_1750,
,,0.49,"[-6.75, 0]",/sounds/legit/left100.wav,,,,,4,8,148,33,,,,,,,,,,,,,,,left,1.27084112167,,,,,participant4,26,59.8136129567,male,trial,2017_May_25_1750,
,,0.36,"[6.75, 0]",/sounds/legit/right100.wav,,,,,4,9,149,17,,,,,,,,,,,,,,,right,0.786219120026,,,,,participant4,26,59.8136129567,male,trial,2017_May_25_1750,
,,0.49,"[-4.5, 0]",/sounds/legit/left60.wav,,,,,4,10,150,28,,,,,,,,,,,,,,,left,0.736664056778,,,,,participant4,26,59.8136129567,male,trial,2017_May_25_1750,
,,0.62,"[0, 0]",/sounds/legit/equal.wav,,,,,4,11,151,4,,,,,,,,,,,,,,,right,0.268522024155,,,,,participant4,26,59.8136129567,male,trial,2017_May_25_1750,
,,0.36,"[-2.25, 0]",/sounds/legit/left30.wav,,,,,4,12,152,22,,,,,,,,,,,,,,,left,0.435653924942,,,,,participant4,26,59.8136129567,male,trial,2017_May_25_1750,
,,0.23,"[0, 0]",/sounds/legit/equal.wav,,,,,4,13,153,1,,,,,,,,,,,,,,,left,0.435618162155,,,,,participant4,26,59.8136129567,male,trial,2017_May_25_1750,
,,0.23,"[6.75, 0]",/sounds/legit/right100.wav,,,,,4,14,154,16,,,,,,,,,,,,,,,right,0.669178009033,,,,,participant4,26,59.8136129567,male,trial,2017_May_25_1750,
,,0.62,"[-6.75, 0]",/sounds/legit/left100.wav,,,,,4,15,155,34,,,,,,,,,,,,,,,left,0.0849509239197,,,,,participant4,26,59.8136129567,male,trial,2017_May_25_1750,
,,0.23,"[-2.25, 0]",/sounds/legit/left30.wav,,,,,4,16,156,21,,,,,,,,,,,,,,,left,0.368927001953,,,,,participant4,26,59.8136129567,male,trial,2017_May_25_1750,
,,0.62,"[2.25, 0]",/sounds/legit/right30.wav,,,,,4,17,157,9,,,,,,,,,,,,,,,right,0.0179259777069,,,,,participant4,26,59.8136129567,male,trial,2017_May_25_1750,
,,0.36,"[-6.75, 0]",/sounds/legit/left100.wav,,,,,4,18,158,32,,,,,,,,,,,,,,,left,0.301697015762,,,,,participant4,26,59.8136129567,male,trial,2017_May_25_1750,
,,0.49,"[0, 0]",/sounds/legit/equal.wav,,,,,4,19,159,3,,,,,,,,,,,,,,,left,0.251894950867,,,,,participant4,26,59.8136129567,male,trial,2017_May_25_1750,
,,0.62,"[-2.25, 0]",/sounds/legit/left30.wav,,,,,4,20,160,24,,,,,,,,,,,,,,,left,0.953138113022,,,,,participant4,26,59.8136129567,male,trial,2017_May_25_1750,
,,0.62,"[-4.5, 0]",/sounds/legit/left60.wav,,,,,4,21,161,29,,,,,,,,,,,,,,,left,0.00127792358398,,,,,participant4,26,59.8136129567,male,trial,2017_May_25_1750,
,,0.23,"[-4.5, 0]",/sounds/legit/left60.wav,,,,,4,22,162,26,,,,,,,,,,,,,,,left,0.385342121124,,,,,participant4,26,59.8136129567,male,trial,2017_May_25_1750,
,,0.23,"[4.5, 0]",/sounds/legit/right60.wav,,,,,4,23,163,11,,,,,,,,,,,,,,,right,0.067971944809,,,,,participant4,26,59.8136129567,male,trial,2017_May_25_1750,
,,0.36,"[0, 0]",/sounds/legit/equal.wav,,,,,4,24,164,2,,,,,,,,,,,,,,,right,0.185394048691,,,,,participant4,26,59.8136129567,male,trial,2017_May_25_1750,
,,0.1,"[0, 0]",/sounds/legit/equal.wav,,,,,4,25,165,0,,,,,,,,,,,,,,,left,0.652506113052,,,,,participant4,26,59.8136129567,male,trial,2017_May_25_1750,
,,0.23,"[-6.75, 0]",/sounds/legit/left100.wav,,,,,4,26,166,31,,,,,,,,,,,,,,,left,0.084813117981,,,,,participant4,26,59.8136129567,male,trial,2017_May_25_1750,
,,0.1,"[2.25, 0]",/sounds/legit/right30.wav,,,,,4,27,167,5,,,,,,,,,,,,,,,right,0.352216005325,,,,,participant4,26,59.8136129567,male,trial,2017_May_25_1750,
,,0.1,"[6.75, 0]",/sounds/legit/right100.wav,,,,,4,28,168,15,,,,,,,,,,,,,,,right,0.502287149429,,,,,participant4,26,59.8136129567,male,trial,2017_May_25_1750,
,,0.49,"[4.5, 0]",/sounds/legit/right60.wav,,,,,4,29,169,13,,,,,,,,,,,,,,,right,0.18376493454,,,,,participant4,26,59.8136129567,male,trial,2017_May_25_1750,
,,0.1,"[-6.75, 0]",/sounds/legit/left100.wav,,,,,4,30,170,30,,,,,,,,,,,,,,,left,0.251897096634,,,,,participant4,26,59.8136129567,male,trial,2017_May_25_1750,
,,0.36,"[-4.5, 0]",/sounds/legit/left60.wav,,,,,4,31,171,27,,,,,,,,,,,,,,,left,0.418949842453,,,,,participant4,26,59.8136129567,male,trial,2017_May_25_1750,
,,0.1,"[4.5, 0]",/sounds/legit/right60.wav,,,,,4,32,172,10,,,,,,,,,,,,,,,right,0.33532500267,,,,,participant4,26,59.8136129567,male,trial,2017_May_25_1750,
,,0.49,"[2.25, 0]",/sounds/legit/right30.wav,,,,,4,33,173,8,,,,,,,,,,,,,,,right,0.619424104691,,,,,participant4,26,59.8136129567,male,trial,2017_May_25_1750,
,,0.36,"[4.5, 0]",/sounds/legit/right60.wav,,,,,4,34,174,12,,,,,,,,,,,,,,,right,0.318912982941,,,,,participant4,26,59.8136129567,male,trial,2017_May_25_1750,
,,0.36,"[0, 0]",/sounds/legit/equal.wav,,,,,5,0,175,2,,,,,,,,,,,,,,,left,0.435431957245,,,,,participant4,26,59.8136129567,male,trial,2017_May_25_1750,
,,0.36,"[-4.5, 0]",/sounds/legit/left60.wav,,,,,5,1,176,27,,,,,,,,,,,,,,,left,0.468905925751,,,,,participant4,26,59.8136129567,male,trial,2017_May_25_1750,
,,0.49,"[-4.5, 0]",/sounds/legit/left60.wav,,,,,5,2,177,28,,,,,,,,,,,,,,,left,0.502505064011,,,,,participant4,26,59.8136129567,male,trial,2017_May_25_1750,
,,0.62,"[-6.75, 0]",/sounds/legit/left100.wav,,,,,5,3,178,34,,,,,,,,,,,,,,,left,0.585772037506,,,,,participant4,26,59.8136129567,male,trial,2017_May_25_1750,
,,0.36,"[-2.25, 0]",/sounds/legit/left30.wav,,,,,5,4,179,22,,,,,,,,,,,,,,,left,0.619406938553,,,,,participant4,26,59.8136129567,male,trial,2017_May_25_1750,
,,0.62,"[2.25, 0]",/sounds/legit/right30.wav,,,,,5,5,180,9,,,,,,,,,,,,,,,right,0.352045059204,,,,,participant4,26,59.8136129567,male,trial,2017_May_25_1750,
,,0.1,"[-2.25, 0]",/sounds/legit/left30.wav,,,,,5,6,181,20,,,,,,,,,,,,,,,left,0.0170118808746,,,,,participant4,26,59.8136129567,male,trial,2017_May_25_1750,
,,0.1,"[4.5, 0]",/sounds/legit/right60.wav,,,,,5,7,182,10,,,,,,,,,,,,,,,right,2.77379584312,,,,,participant4,26,59.8136129567,male,trial,2017_May_25_1750,
,,0.49,"[-2.25, 0]",/sounds/legit/left30.wav,,,,,5,8,183,23,,,,,,,,,,,,,,,left,0.602641105652,,,,,participant4,26,59.8136129567,male,trial,2017_May_25_1750,
,,0.36,"[6.75, 0]",/sounds/legit/right100.wav,,,,,5,9,184,17,,,,,,,,,,,,,,,right,0.335586071014,,,,,participant4,26,59.8136129567,male,trial,2017_May_25_1750,
,,0.23,"[-4.5, 0]",/sounds/legit/left60.wav,,,,,5,10,185,26,,,,,,,,,,,,,,,left,0.0848939418793,,,,,participant4,26,59.8136129567,male,trial,2017_May_25_1750,
,,0.36,"[4.5, 0]",/sounds/legit/right60.wav,,,,,5,11,186,12,,,,,,,,,,,,,,,right,0.151566028595,,,,,participant4,26,59.8136129567,male,trial,2017_May_25_1750,
,,0.49,"[2.25, 0]",/sounds/legit/right30.wav,,,,,5,12,187,8,,,,,,,,,,,,,,,right,0.317664146423,,,,,participant4,26,59.8136129567,male,trial,2017_May_25_1750,
,,0.62,"[0, 0]",/sounds/legit/equal.wav,,,,,5,13,188,4,,,,,,,,,,,,,,,right,0.285259962082,,,,,participant4,26,59.8136129567,male,trial,2017_May_25_1750,
,,0.23,"[2.25, 0]",/sounds/legit/right30.wav,,,,,5,14,189,6,,,,,,,,,,,,,,,right,0.602552890778,,,,,participant4,26,59.8136129567,male,trial,2017_May_25_1750,
,,0.1,"[0, 0]",/sounds/legit/equal.wav,,,,,5,15,190,0,,,,,,,,,,,,,,,right,0.335302829742,,,,,participant4,26,59.8136129567,male,trial,2017_May_25_1750,
,,0.23,"[6.75, 0]",/sounds/legit/right100.wav,,,,,5,16,191,16,,,,,,,,,,,,,,,right,3.67595911026,,,,,participant4,26,59.8136129567,male,trial,2017_May_25_1750,
,,0.49,"[4.5, 0]",/sounds/legit/right60.wav,,,,,5,17,192,13,,,,,,,,,,,,,,,right,0.853280067444,,,,,participant4,26,59.8136129567,male,trial,2017_May_25_1750,
,,0.49,"[-6.75, 0]",/sounds/legit/left100.wav,,,,,5,18,193,33,,,,,,,,,,,,,,,left,0.251718997955,,,,,participant4,26,59.8136129567,male,trial,2017_May_25_1750,
,,0.62,"[6.75, 0]",/sounds/legit/right100.wav,,,,,5,19,194,19,,,,,,,,,,,,,,,right,0.285226821899,,,,,participant4,26,59.8136129567,male,trial,2017_May_25_1750,
,,0.62,"[4.5, 0]",/sounds/legit/right60.wav,,,,,5,20,195,14,,,,,,,,,,,,,,,right,0.251710891724,,,,,participant4,26,59.8136129567,male,trial,2017_May_25_1750,
,,0.23,"[0, 0]",/sounds/legit/equal.wav,,,,,5,21,196,1,,,,,,,,,,,,,,,right,0.268475055695,,,,,participant4,26,59.8136129567,male,trial,2017_May_25_1750,
,,0.1,"[6.75, 0]",/sounds/legit/right100.wav,,,,,5,22,197,15,,,,,,,,,,,,,,,right,0.352289199829,,,,,participant4,26,59.8136129567,male,trial,2017_May_25_1750,
,,0.62,"[-2.25, 0]",/sounds/legit/left30.wav,,,,,5,23,198,24,,,,,,,,,,,,,,,left,0.218510150909,,,,,participant4,26,59.8136129567,male,trial,2017_May_25_1750,
,,0.1,"[-6.75, 0]",/sounds/legit/left100.wav,,,,,5,24,199,30,,,,,,,,,,,,,,,left,0.268718004227,,,,,participant4,26,59.8136129567,male,trial,2017_May_25_1750,
,,0.23,"[4.5, 0]",/sounds/legit/right60.wav,,,,,5,25,200,11,,,,,,,,,,,,,,,right,0.285257816315,,,,,participant4,26,59.8136129567,male,trial,2017_May_25_1750,
,,0.49,"[6.75, 0]",/sounds/legit/right100.wav,,,,,5,26,201,18,,,,,,,,,,,,,,,right,0.0348088741302,,,,,participant4,26,59.8136129567,male,trial,2017_May_25_1750,
,,0.36,"[-6.75, 0]",/sounds/legit/left100.wav,,,,,5,27,202,32,,,,,,,,,,,,,,,left,1.05349993706,,,,,participant4,26,59.8136129567,male,trial,2017_May_25_1750,
,,0.1,"[2.25, 0]",/sounds/legit/right30.wav,,,,,5,28,203,5,,,,,,,,,,,,,,,right,0.268759012222,,,,,participant4,26,59.8136129567,male,trial,2017_May_25_1750,
,,0.23,"[-6.75, 0]",/sounds/legit/left100.wav,,,,,5,29,204,31,,,,,,,,,,,,,,,left,0.402188062668,,,,,participant4,26,59.8136129567,male,trial,2017_May_25_1750,
,,0.36,"[2.25, 0]",/sounds/legit/right30.wav,,,,,5,30,205,7,,,,,,,,,,,,,,,right,0.101431131363,,,,,participant4,26,59.8136129567,male,trial,2017_May_25_1750,
,,0.49,"[0, 0]",/sounds/legit/equal.wav,,,,,5,31,206,3,,,,,,,,,,,,,,,right,0.669404983521,,,,,participant4,26,59.8136129567,male,trial,2017_May_25_1750,
,,0.23,"[-2.25, 0]",/sounds/legit/left30.wav,,,,,5,32,207,21,,,,,,,,,,,,,,,left,0.201560020447,,,,,participant4,26,59.8136129567,male,trial,2017_May_25_1750,
,,0.62,"[-4.5, 0]",/sounds/legit/left60.wav,,,,,5,33,208,29,,,,,,,,,,,,,,,left,0.0348098278046,,,,,participant4,26,59.8136129567,male,trial,2017_May_25_1750,
,,0.1,"[-4.5, 0]",/sounds/legit/left60.wav,,,,,5,34,209,25,,,,,,,,,,,,,,,left,0.418757200241,,,,,participant4,26,59.8136129567,male,trial,2017_May_25_1750,
,,0.1,"[-2.25, 0]",/sounds/legit/left30.wav,,,,,6,0,210,20,,,,,,,,,,,,,,,left,2.03899979591,,,,,participant4,26,59.8136129567,male,trial,2017_May_25_1750,
,,0.23,"[-6.75, 0]",/sounds/legit/left100.wav,,,,,6,1,211,31,,,,,,,,,,,,,,,left,2.57362914085,,,,,participant4,26,59.8136129567,male,trial,2017_May_25_1750,
,,0.36,"[6.75, 0]",/sounds/legit/right100.wav,,,,,6,2,212,17,,,,,,,,,,,,,,,right,1.27076005936,,,,,participant4,26,59.8136129567,male,trial,2017_May_25_1750,
,,0.1,"[4.5, 0]",/sounds/legit/right60.wav,,,,,6,3,213,10,,,,,,,,,,,,,,,right,0.11847114563,,,,,participant4,26,59.8136129567,male,trial,2017_May_25_1750,
,,0.36,"[-2.25, 0]",/sounds/legit/left30.wav,,,,,6,4,214,22,,,,,,,,,,,,,,,left,3.17482590675,,,,,participant4,26,59.8136129567,male,trial,2017_May_25_1750,
,,0.62,"[0, 0]",/sounds/legit/equal.wav,,,,,6,5,215,4,,,,,,,,,,,,,,,left,0.569256067276,,,,,participant4,26,59.8136129567,male,trial,2017_May_25_1750,
,,0.62,"[6.75, 0]",/sounds/legit/right100.wav,,,,,6,6,216,19,,,,,,,,,,,,,,,right,1.02031517029,,,,,participant4,26,59.8136129567,male,trial,2017_May_25_1750,
,,0.36,"[-4.5, 0]",/sounds/legit/left60.wav,,,,,6,7,217,27,,,,,,,,,,,,,,,left,0.819756984711,,,,,participant4,26,59.8136129567,male,trial,2017_May_25_1750,
,,0.49,"[-6.75, 0]",/sounds/legit/left100.wav,,,,,6,8,218,33,,,,,,,,,,,,,,,left,2.05583715439,,,,,participant4,26,59.8136129567,male,trial,2017_May_25_1750,
,,0.1,"[-6.75, 0]",/sounds/legit/left100.wav,,,,,6,9,219,30,,,,,,,,,,,,,,,left,0.268433094025,,,,,participant4,26,59.8136129567,male,trial,2017_May_25_1750,
,,0.49,"[0, 0]",/sounds/legit/equal.wav,,,,,6,10,220,3,,,,,,,,,,,,,,,left,0.318855047226,,,,,participant4,26,59.8136129567,male,trial,2017_May_25_1750,
,,0.49,"[2.25, 0]",/sounds/legit/right30.wav,,,,,6,11,221,8,,,,,,,,,,,,,,,right,0.235109090805,,,,,participant4,26,59.8136129567,male,trial,2017_May_25_1750,
,,0.23,"[0, 0]",/sounds/legit/equal.wav,,,,,6,12,222,1,,,,,,,,,,,,,,,left,0.335381031036,,,,,participant4,26,59.8136129567,male,trial,2017_May_25_1750,
,,0.62,"[4.5, 0]",/sounds/legit/right60.wav,,,,,6,13,223,14,,,,,,,,,,,,,,,right,0.335422992706,,,,,participant4,26,59.8136129567,male,trial,2017_May_25_1750,
,,0.62,"[-4.5, 0]",/sounds/legit/left60.wav,,,,,6,14,224,29,,,,,,,,,,,,,,,left,0.552628993988,,,,,participant4,26,59.8136129567,male,trial,2017_May_25_1750,
,,0.36,"[-6.75, 0]",/sounds/legit/left100.wav,,,,,6,15,225,32,,,,,,,,,,,,,,,left,0.268617153168,,,,,participant4,26,59.8136129567,male,trial,2017_May_25_1750,
,,0.62,"[-6.75, 0]",/sounds/legit/left100.wav,,,,,6,16,226,34,,,,,,,,,,,,,,,left,0.352260828018,,,,,participant4,26,59.8136129567,male,trial,2017_May_25_1750,
,,0.23,"[-2.25, 0]",/sounds/legit/left30.wav,,,,,6,17,227,21,,,,,,,,,,,,,,,left,0.285254955292,,,,,participant4,26,59.8136129567,male,trial,2017_May_25_1750,
,,0.1,"[-4.5, 0]",/sounds/legit/left60.wav,,,,,6,18,228,25,,,,,,,,,,,,,,,left,0.402373075485,,,,,participant4,26,59.8136129567,male,trial,2017_May_25_1750,
,,0.1,"[0, 0]",/sounds/legit/equal.wav,,,,,6,19,229,0,,,,,,,,,,,,,,,left,0.43572306633,,,,,participant4,26,59.8136129567,male,trial,2017_May_25_1750,
,,0.23,"[6.75, 0]",/sounds/legit/right100.wav,,,,,6,20,230,16,,,,,,,,,,,,,,,right,0.519336223602,,,,,participant4,26,59.8136129567,male,trial,2017_May_25_1750,
,,0.49,"[-4.5, 0]",/sounds/legit/left60.wav,,,,,6,21,231,28,,,,,,,,,,,,,,,left,3.22493505478,,,,,participant4,26,59.8136129567,male,trial,2017_May_25_1750,
,,0.49,"[-2.25, 0]",/sounds/legit/left30.wav,,,,,6,22,232,23,,,,,,,,,,,,,,,left,0.268460988998,,,,,participant4,26,59.8136129567,male,trial,2017_May_25_1750,
,,0.36,"[2.25, 0]",/sounds/legit/right30.wav,,,,,6,23,233,7,,,,,,,,,,,,,,,right,0.01726603508,,,,,participant4,26,59.8136129567,male,trial,2017_May_25_1750,
,,0.36,"[4.5, 0]",/sounds/legit/right60.wav,,,,,6,24,234,12,,,,,,,,,,,,,,,right,0.268647909164,,,,,participant4,26,59.8136129567,male,trial,2017_May_25_1750,
,,0.1,"[6.75, 0]",/sounds/legit/right100.wav,,,,,6,25,235,15,,,,,,,,,,,,,,,right,0.218348026276,,,,,participant4,26,59.8136129567,male,trial,2017_May_25_1750,
,,0.62,"[2.25, 0]",/sounds/legit/right30.wav,,,,,6,26,236,9,,,,,,,,,,,,,,,right,0.117341995239,,,,,participant4,26,59.8136129567,male,trial,2017_May_25_1750,
,,0.62,"[-2.25, 0]",/sounds/legit/left30.wav,,,,,6,27,237,24,,,,,,,,,,,,,,,left,0.00143790245056,,,,,participant4,26,59.8136129567,male,trial,2017_May_25_1750,
,,0.23,"[2.25, 0]",/sounds/legit/right30.wav,,,,,6,28,238,6,,,,,,,,,,,,,,,right,0.0183260440826,,,,,participant4,26,59.8136129567,male,trial,2017_May_25_1750,
,,0.49,"[4.5, 0]",/sounds/legit/right60.wav,,,,,6,29,239,13,,,,,,,,,,,,,,,right,0.318773031235,,,,,participant4,26,59.8136129567,male,trial,2017_May_25_1750,
,,0.36,"[0, 0]",/sounds/legit/equal.wav,,,,,6,30,240,2,,,,,,,,,,,,,,,right,1.87194013596,,,,,participant4,26,59.8136129567,male,trial,2017_May_25_1750,
,,0.23,"[4.5, 0]",/sounds/legit/right60.wav,,,,,6,31,241,11,,,,,,,,,,,,,,,right,2.33948397636,,,,,participant4,26,59.8136129567,male,trial,2017_May_25_1750,
,,0.23,"[-4.5, 0]",/sounds/legit/left60.wav,,,,,6,32,242,26,,,,,,,,,,,,,,,left,0.769826889038,,,,,participant4,26,59.8136129567,male,trial,2017_May_25_1750,
,,0.49,"[6.75, 0]",/sounds/legit/right100.wav,,,,,6,33,243,18,,,,,,,,,,,,,,,right,0.786467075348,,,,,participant4,26,59.8136129567,male,trial,2017_May_25_1750,
,,0.1,"[2.25, 0]",/sounds/legit/right30.wav,,,,,6,34,244,5,,,,,,,,,,,,,,,right,0.819755792618,,,,,participant4,26,59.8136129567,male,trial,2017_May_25_1750,
,,0.1,"[-2.25, 0]",/sounds/legit/left30.wav,,,,,7,0,245,20,,,,,,,,,,,,,,,left,0.919994831085,,,,,participant4,26,59.8136129567,male,trial,2017_May_25_1750,
,,0.23,"[0, 0]",/sounds/legit/equal.wav,,,,,7,1,246,1,,,,,,,,,,,,,,,left,0.769665956497,,,,,participant4,26,59.8136129567,male,trial,2017_May_25_1750,
,,0.1,"[6.75, 0]",/sounds/legit/right100.wav,,,,,7,2,247,15,,,,,,,,,,,,,,,right,0.535810947418,,,,,participant4,26,59.8136129567,male,trial,2017_May_25_1750,
,,0.36,"[4.5, 0]",/sounds/legit/right60.wav,,,,,7,3,248,12,,,,,,,,,,,,,,,right,1.11910390854,,,,,participant4,26,59.8136129567,male,trial,2017_May_25_1750,
,,0.1,"[0, 0]",/sounds/legit/equal.wav,,,,,7,4,249,0,,,,,,,,,,,,,,,left,0.619435787201,,,,,participant4,26,59.8136129567,male,trial,2017_May_25_1750,
,,0.49,"[0, 0]",/sounds/legit/equal.wav,,,,,7,5,250,3,,,,,,,,,,,,,,,left,0.302102088928,,,,,participant4,26,59.8136129567,male,trial,2017_May_25_1750,
,,0.23,"[2.25, 0]",/sounds/legit/right30.wav,,,,,7,6,251,6,,,,,,,,,,,,,,,right,0.452107906342,,,,,participant4,26,59.8136129567,male,trial,2017_May_25_1750,
,,0.62,"[2.25, 0]",/sounds/legit/right30.wav,,,,,7,7,252,9,,,,,,,,,,,,,,,left,0.753350019455,,,,,participant4,26,59.8136129567,male,trial,2017_May_25_1750,
,,0.1,"[-4.5, 0]",/sounds/legit/left60.wav,,,,,7,8,253,25,,,,,,,,,,,,,,,left,0.218628168106,,,,,participant4,26,59.8136129567,male,trial,2017_May_25_1750,
,,0.1,"[2.25, 0]",/sounds/legit/right30.wav,,,,,7,9,254,5,,,,,,,,,,,,,,,right,0.368544816971,,,,,participant4,26,59.8136129567,male,trial,2017_May_25_1750,
,,0.1,"[4.5, 0]",/sounds/legit/right60.wav,,,,,7,10,255,10,,,,,,,,,,,,,,,right,0.167197942734,,,,,participant4,26,59.8136129567,male,trial,2017_May_25_1750,
,,0.23,"[-6.75, 0]",/sounds/legit/left100.wav,,,,,7,11,256,31,,,,,,,,,,,,,,,left,0.252059936523,,,,,participant4,26,59.8136129567,male,trial,2017_May_25_1750,
,,0.36,"[-4.5, 0]",/sounds/legit/left60.wav,,,,,7,12,257,27,,,,,,,,,,,,,,,left,0.301958084106,,,,,participant4,26,59.8136129567,male,trial,2017_May_25_1750,
,,0.23,"[-4.5, 0]",/sounds/legit/left60.wav,,,,,7,13,258,26,,,,,,,,,,,,,,,left,2.54020690918,,,,,participant4,26,59.8136129567,male,trial,2017_May_25_1750,
,,0.36,"[-6.75, 0]",/sounds/legit/left100.wav,,,,,7,14,259,32,,,,,,,,,,,,,,,left,0.602647781372,,,,,participant4,26,59.8136129567,male,trial,2017_May_25_1750,
,,0.23,"[4.5, 0]",/sounds/legit/right60.wav,,,,,7,15,260,11,,,,,,,,,,,,,,,right,0.669468164444,,,,,participant4,26,59.8136129567,male,trial,2017_May_25_1750,
,,0.23,"[-2.25, 0]",/sounds/legit/left30.wav,,,,,7,16,261,21,,,,,,,,,,,,,,,left,1.05248880386,,,,,participant4,26,59.8136129567,male,trial,2017_May_25_1750,
,,0.62,"[0, 0]",/sounds/legit/equal.wav,,,,,7,17,262,4,,,,,,,,,,,,,,,left,1.03698992729,,,,,participant4,26,59.8136129567,male,trial,2017_May_25_1750,
,,0.49,"[-2.25, 0]",/sounds/legit/left30.wav,,,,,7,18,263,23,,,,,,,,,,,,,,,left,0.30223608017,,,,,participant4,26,59.8136129567,male,trial,2017_May_25_1750,
,,0.49,"[2.25, 0]",/sounds/legit/right30.wav,,,,,7,19,264,8,,,,,,,,,,,,,,,right,0.569230079651,,,,,participant4,26,59.8136129567,male,trial,2017_May_25_1750,
,,0.36,"[2.25, 0]",/sounds/legit/right30.wav,,,,,7,20,265,7,,,,,,,,,,,,,,,right,2.28961014748,,,,,participant4,26,59.8136129567,male,trial,2017_May_25_1750,
,,0.62,"[4.5, 0]",/sounds/legit/right60.wav,,,,,7,21,266,14,,,,,,,,,,,,,,,right,0.152058124542,,,,,participant4,26,59.8136129567,male,trial,2017_May_25_1750,
,,0.62,"[-2.25, 0]",/sounds/legit/left30.wav,,,,,7,22,267,24,,,,,,,,,,,,,,,left,0.318558216095,,,,,participant4,26,59.8136129567,male,trial,2017_May_25_1750,
,,0.1,"[-6.75, 0]",/sounds/legit/left100.wav,,,,,7,23,268,30,,,,,,,,,,,,,,,left,0.919950008392,,,,,participant4,26,59.8136129567,male,trial,2017_May_25_1750,
,,0.62,"[6.75, 0]",/sounds/legit/right100.wav,,,,,7,24,269,19,,,,,,,,,,,,,,,right,0.16837310791,,,,,participant4,26,59.8136129567,male,trial,2017_May_25_1750,
,,0.62,"[-4.5, 0]",/sounds/legit/left60.wav,,,,,7,25,270,29,,,,,,,,,,,,,,,left,0.385559082031,,,,,participant4,26,59.8136129567,male,trial,2017_May_25_1750,
,,0.36,"[-2.25, 0]",/sounds/legit/left30.wav,,,,,7,26,271,22,,,,,,,,,,,,,,,left,0.301898002625,,,,,participant4,26,59.8136129567,male,trial,2017_May_25_1750,
,,0.49,"[6.75, 0]",/sounds/legit/right100.wav,,,,,7,27,272,18,,,,,,,,,,,,,,,right,0.335209131241,,,,,participant4,26,59.8136129567,male,trial,2017_May_25_1750,
,,0.23,"[6.75, 0]",/sounds/legit/right100.wav,,,,,7,28,273,16,,,,,,,,,,,,,,,right,0.352172136307,,,,,participant4,26,59.8136129567,male,trial,2017_May_25_1750,
,,0.49,"[-4.5, 0]",/sounds/legit/left60.wav,,,,,7,29,274,28,,,,,,,,,,,,,,,left,0.0852761268616,,,,,participant4,26,59.8136129567,male,trial,2017_May_25_1750,
,,0.36,"[0, 0]",/sounds/legit/equal.wav,,,,,7,30,275,2,,,,,,,,,,,,,,,left,0.252018928528,,,,,participant4,26,59.8136129567,male,trial,2017_May_25_1750,
,,0.49,"[4.5, 0]",/sounds/legit/right60.wav,,,,,7,31,276,13,,,,,,,,,,,,,,,right,0.285405158997,,,,,participant4,26,59.8136129567,male,trial,2017_May_25_1750,
,,0.36,"[6.75, 0]",/sounds/legit/right100.wav,,,,,7,32,277,17,,,,,,,,,,,,,,,right,0.268787145615,,,,,participant4,26,59.8136129567,male,trial,2017_May_25_1750,
,,0.49,"[-6.75, 0]",/sounds/legit/left100.wav,,,,,7,33,278,33,,,,,,,,,,,,,,,left,0.285193920135,,,,,participant4,26,59.8136129567,male,trial,2017_May_25_1750,
,,0.62,"[-6.75, 0]",/sounds/legit/left100.wav,,,,,7,34,279,34,,,,,,,,,,,,,,,left,0.351891994476,,,,,participant4,26,59.8136129567,male,trial,2017_May_25_1750,
,,0.62,"[6.75, 0]",/sounds/legit/right100.wav,,,,,8,0,280,19,,,,,,,,,,,,,,,right,0.0179600715637,,,,,participant4,26,59.8136129567,male,trial,2017_May_25_1750,
,,0.23,"[-6.75, 0]",/sounds/legit/left100.wav,,,,,8,1,281,31,,,,,,,,,,,,,,,left,2.13914608955,,,,,participant4,26,59.8136129567,male,trial,2017_May_25_1750,
,,0.49,"[2.25, 0]",/sounds/legit/right30.wav,,,,,8,2,282,8,,,,,,,,,,,,,,,right,0.418817996979,,,,,participant4,26,59.8136129567,male,trial,2017_May_25_1750,
,,0.62,"[-4.5, 0]",/sounds/legit/left60.wav,,,,,8,3,283,29,,,,,,,,,,,,,,,left,0.803035974503,,,,,participant4,26,59.8136129567,male,trial,2017_May_25_1750,
,,0.49,"[-4.5, 0]",/sounds/legit/left60.wav,,,,,8,4,284,28,,,,,,,,,,,,,,,left,0.0179660320282,,,,,participant4,26,59.8136129567,male,trial,2017_May_25_1750,
,,0.62,"[4.5, 0]",/sounds/legit/right60.wav,,,,,8,5,285,14,,,,,,,,,,,,,,,left,0.402187108994,,,,,participant4,26,59.8136129567,male,trial,2017_May_25_1750,
,,0.62,"[-6.75, 0]",/sounds/legit/left100.wav,,,,,8,6,286,34,,,,,,,,,,,,,,,left,0.318571090698,,,,,participant4,26,59.8136129567,male,trial,2017_May_25_1750,
,,0.23,"[-4.5, 0]",/sounds/legit/left60.wav,,,,,8,7,287,26,,,,,,,,,,,,,,,left,0.251856088638,,,,,participant4,26,59.8136129567,male,trial,2017_May_25_1750,
,,0.1,"[2.25, 0]",/sounds/legit/right30.wav,,,,,8,8,288,5,,,,,,,,,,,,,,,right,0.335598945618,,,,,participant4,26,59.8136129567,male,trial,2017_May_25_1750,
,,0.23,"[6.75, 0]",/sounds/legit/right100.wav,,,,,8,9,289,16,,,,,,,,,,,,,,,right,0.151609182358,,,,,participant4,26,59.8136129567,male,trial,2017_May_25_1750,
,,0.49,"[-2.25, 0]",/sounds/legit/left30.wav,,,,,8,10,290,23,,,,,,,,,,,,,,,left,0.0349040031433,,,,,participant4,26,59.8136129567,male,trial,2017_May_25_1750,
,,0.36,"[2.25, 0]",/sounds/legit/right30.wav,,,,,8,11,291,7,,,,,,,,,,,,,,,right,1.60468411446,,,,,participant4,26,59.8136129567,male,trial,2017_May_25_1750,
,,0.49,"[-6.75, 0]",/sounds/legit/left100.wav,,,,,8,12,292,33,,,,,,,,,,,,,,,left,0.502650022507,,,,,participant4,26,59.8136129567,male,trial,2017_May_25_1750,
,,0.49,"[0, 0]",/sounds/legit/equal.wav,,,,,8,13,293,3,,,,,,,,,,,,,,,left,0.2853910923,,,,,participant4,26,59.8136129567,male,trial,2017_May_25_1750,
,,0.23,"[2.25, 0]",/sounds/legit/right30.wav,,,,,8,14,294,6,,,,,,,,,,,,,,,right,0.485570907593,,,,,participant4,26,59.8136129567,male,trial,2017_May_25_1750,
,,0.23,"[4.5, 0]",/sounds/legit/right60.wav,,,,,8,15,295,11,,,,,,,,,,,,,,,right,0.318685054779,,,,,participant4,26,59.8136129567,male,trial,2017_May_25_1750,
,,0.1,"[-4.5, 0]",/sounds/legit/left60.wav,,,,,8,16,296,25,,,,,,,,,,,,,,,left,0.619285106659,,,,,participant4,26,59.8136129567,male,trial,2017_May_25_1750,
,,0.62,"[-2.25, 0]",/sounds/legit/left30.wav,,,,,8,17,297,24,,,,,,,,,,,,,,,left,0.619351148605,,,,,participant4,26,59.8136129567,male,trial,2017_May_25_1750,
,,0.36,"[4.5, 0]",/sounds/legit/right60.wav,,,,,8,18,298,12,,,,,,,,,,,,,,,right,0.602630138397,,,,,participant4,26,59.8136129567,male,trial,2017_May_25_1750,
,,0.1,"[-6.75, 0]",/sounds/legit/left100.wav,,,,,8,19,299,30,,,,,,,,,,,,,,,left,0.702857971191,,,,,participant4,26,59.8136129567,male,trial,2017_May_25_1750,
,,0.62,"[2.25, 0]",/sounds/legit/right30.wav,,,,,8,20,300,9,,,,,,,,,,,,,,,right,0.318345069885,,,,,participant4,26,59.8136129567,male,trial,2017_May_25_1750,
,,0.49,"[4.5, 0]",/sounds/legit/right60.wav,,,,,8,21,301,13,,,,,,,,,,,,,,,right,0.503082036972,,,,,participant4,26,59.8136129567,male,trial,2017_May_25_1750,
,,0.1,"[4.5, 0]",/sounds/legit/right60.wav,,,,,8,22,302,10,,,,,,,,,,,,,,,right,0.770283937454,,,,,participant4,26,59.8136129567,male,trial,2017_May_25_1750,
,,0.49,"[6.75, 0]",/sounds/legit/right100.wav,,,,,8,23,303,18,,,,,,,,,,,,,,,right,0.0520091056824,,,,,participant4,26,59.8136129567,male,trial,2017_May_25_1750,
,,0.62,"[0, 0]",/sounds/legit/equal.wav,,,,,8,24,304,4,,,,,,,,,,,,,,,left,0.435813903809,,,,,participant4,26,59.8136129567,male,trial,2017_May_25_1750,
,,0.36,"[0, 0]",/sounds/legit/equal.wav,,,,,8,25,305,2,,,,,,,,,,,,,,,left,0.602576971054,,,,,participant4,26,59.8136129567,male,trial,2017_May_25_1750,
,,0.36,"[-4.5, 0]",/sounds/legit/left60.wav,,,,,8,26,306,27,,,,,,,,,,,,,,,left,0.568295955658,,,,,participant4,26,59.8136129567,male,trial,2017_May_25_1750,
,,0.36,"[-6.75, 0]",/sounds/legit/left100.wav,,,,,8,27,307,32,,,,,,,,,,,,,,,left,0.502289056778,,,,,participant4,26,59.8136129567,male,trial,2017_May_25_1750,
,,0.36,"[6.75, 0]",/sounds/legit/right100.wav,,,,,8,28,308,17,,,,,,,,,,,,,,,right,0.134984970093,,,,,participant4,26,59.8136129567,male,trial,2017_May_25_1750,
,,0.1,"[6.75, 0]",/sounds/legit/right100.wav,,,,,8,29,309,15,,,,,,,,,,,,,,,right,2.23930096626,,,,,participant4,26,59.8136129567,male,trial,2017_May_25_1750,
,,0.1,"[0, 0]",/sounds/legit/equal.wav,,,,,8,30,310,0,,,,,,,,,,,,,,,left,0.118376016617,,,,,participant4,26,59.8136129567,male,trial,2017_May_25_1750,
,,0.1,"[-2.25, 0]",/sounds/legit/left30.wav,,,,,8,31,311,20,,,,,,,,,,,,,,,left,2.75716805458,,,,,participant4,26,59.8136129567,male,trial,2017_May_25_1750,
,,0.23,"[0, 0]",/sounds/legit/equal.wav,,,,,8,32,312,1,,,,,,,,,,,,,,,left,3.60911393166,,,,,participant4,26,59.8136129567,male,trial,2017_May_25_1750,
,,0.36,"[-2.25, 0]",/sounds/legit/left30.wav,,,,,8,33,313,22,,,,,,,,,,,,,,,left,0.819743871689,,,,,participant4,26,59.8136129567,male,trial,2017_May_25_1750,
,,0.23,"[-2.25, 0]",/sounds/legit/left30.wav,,,,,8,34,314,21,,,,,,,,,,,,,,,left,0.0671741962433,,,,,participant4,26,59.8136129567,male,trial,2017_May_25_1750,
,,0.49,"[4.5, 0]",/sounds/legit/right60.wav,,,,,9,0,315,13,,,,,,,,,,,,,,,right,0.218412876129,,,,,participant4,26,59.8136129567,male,trial,2017_May_25_1750,
,,0.36,"[6.75, 0]",/sounds/legit/right100.wav,,,,,9,1,316,17,,,,,,,,,,,,,,,right,0.368658065796,,,,,participant4,26,59.8136129567,male,trial,2017_May_25_1750,
,,0.1,"[4.5, 0]",/sounds/legit/right60.wav,,,,,9,2,317,10,,,,,,,,,,,,,,,right,0.0339109897614,,,,,participant4,26,59.8136129567,male,trial,2017_May_25_1750,
,,0.1,"[0, 0]",/sounds/legit/equal.wav,,,,,9,3,318,0,,,,,,,,,,,,,,,left,0.318649053574,,,,,participant4,26,59.8136129567,male,trial,2017_May_25_1750,
,,0.49,"[0, 0]",/sounds/legit/equal.wav,,,,,9,4,319,3,,,,,,,,,,,,,,,left,0.0679931640625,,,,,participant4,26,59.8136129567,male,trial,2017_May_25_1750,
,,0.62,"[-4.5, 0]",/sounds/legit/left60.wav,,,,,9,5,320,29,,,,,,,,,,,,,,,left,0.134803056717,,,,,participant4,26,59.8136129567,male,trial,2017_May_25_1750,
,,0.36,"[-2.25, 0]",/sounds/legit/left30.wav,,,,,9,6,321,22,,,,,,,,,,,,,,,left,0.0347380638123,,,,,participant4,26,59.8136129567,male,trial,2017_May_25_1750,
,,0.23,"[-6.75, 0]",/sounds/legit/left100.wav,,,,,9,7,322,31,,,,,,,,,,,,,,,left,0.2184009552,,,,,participant4,26,59.8136129567,male,trial,2017_May_25_1750,
,,0.49,"[2.25, 0]",/sounds/legit/right30.wav,,,,,9,8,323,8,,,,,,,,,,,,,,,right,0.00122690200806,,,,,participant4,26,59.8136129567,male,trial,2017_May_25_1750,
,,0.62,"[0, 0]",/sounds/legit/equal.wav,,,,,9,9,324,4,,,,,,,,,,,,,,,left,0.168408155441,,,,,participant4,26,59.8136129567,male,trial,2017_May_25_1750,
,,0.1,"[6.75, 0]",/sounds/legit/right100.wav,,,,,9,10,325,15,,,,,,,,,,,,,,,right,0.0514099597931,,,,,participant4,26,59.8136129567,male,trial,2017_May_25_1750,
,,0.49,"[-2.25, 0]",/sounds/legit/left30.wav,,,,,9,11,326,23,,,,,,,,,,,,,,,left,0.40220618248,,,,,participant4,26,59.8136129567,male,trial,2017_May_25_1750,
,,0.23,"[-4.5, 0]",/sounds/legit/left60.wav,,,,,9,12,327,26,,,,,,,,,,,,,,,left,0.068234205246,,,,,participant4,26,59.8136129567,male,trial,2017_May_25_1750,
,,0.36,"[2.25, 0]",/sounds/legit/right30.wav,,,,,9,13,328,7,,,,,,,,,,,,,,,right,0.686324119568,,,,,participant4,26,59.8136129567,male,trial,2017_May_25_1750,
,,0.62,"[2.25, 0]",/sounds/legit/right30.wav,,,,,9,14,329,9,,,,,,,,,,,,,,,right,0.118484020233,,,,,participant4,26,59.8136129567,male,trial,2017_May_25_1750,
,,0.36,"[-6.75, 0]",/sounds/legit/left100.wav,,,,,9,15,330,32,,,,,,,,,,,,,,,left,0.369171142578,,,,,participant4,26,59.8136129567,male,trial,2017_May_25_1750,
,,0.62,"[-2.25, 0]",/sounds/legit/left30.wav,,,,,9,16,331,24,,,,,,,,,,,,,,,left,0.552502155304,,,,,participant4,26,59.8136129567,male,trial,2017_May_25_1750,
,,0.49,"[6.75, 0]",/sounds/legit/right100.wav,,,,,9,17,332,18,,,,,,,,,,,,,,,right,0.0516018867493,,,,,participant4,26,59.8136129567,male,trial,2017_May_25_1750,
,,0.1,"[-2.25, 0]",/sounds/legit/left30.wav,,,,,9,18,333,20,,,,,,,,,,,,,,,left,2.48998403549,,,,,participant4,26,59.8136129567,male,trial,2017_May_25_1750,
,,0.23,"[-2.25, 0]",/sounds/legit/left30.wav,,,,,9,19,334,21,,,,,,,,,,,,,,,left,1.63855886459,,,,,participant4,26,59.8136129567,male,trial,2017_May_25_1750,
,,0.36,"[-4.5, 0]",/sounds/legit/left60.wav,,,,,9,20,335,27,,,,,,,,,,,,,,,left,0.970127105713,,,,,participant4,26,59.8136129567,male,trial,2017_May_25_1750,
,,0.23,"[2.25, 0]",/sounds/legit/right30.wav,,,,,9,21,336,6,,,,,,,,,,,,,,,right,0.836614131927,,,,,participant4,26,59.8136129567,male,trial,2017_May_25_1750,
,,0.62,"[6.75, 0]",/sounds/legit/right100.wav,,,,,9,22,337,19,,,,,,,,,,,,,,,right,0.569213151932,,,,,participant4,26,59.8136129567,male,trial,2017_May_25_1750,
,,0.1,"[2.25, 0]",/sounds/legit/right30.wav,,,,,9,23,338,5,,,,,,,,,,,,,,,right,0.118017196655,,,,,participant4,26,59.8136129567,male,trial,2017_May_25_1750,
,,0.1,"[-6.75, 0]",/sounds/legit/left100.wav,,,,,9,24,339,30,,,,,,,,,,,,,,,left,0.435564041138,,,,,participant4,26,59.8136129567,male,trial,2017_May_25_1750,
,,0.62,"[-6.75, 0]",/sounds/legit/left100.wav,,,,,9,25,340,34,,,,,,,,,,,,,,,left,0.736421823502,,,,,participant4,26,59.8136129567,male,trial,2017_May_25_1750,
,,0.49,"[-6.75, 0]",/sounds/legit/left100.wav,,,,,9,26,341,33,,,,,,,,,,,,,,,left,0.535722970963,,,,,participant4,26,59.8136129567,male,trial,2017_May_25_1750,
,,0.23,"[4.5, 0]",/sounds/legit/right60.wav,,,,,9,27,342,11,,,,,,,,,,,,,,,right,0.251622915268,,,,,participant4,26,59.8136129567,male,trial,2017_May_25_1750,
,,0.62,"[4.5, 0]",/sounds/legit/right60.wav,,,,,9,28,343,14,,,,,,,,,,,,,,,right,0.369094133377,,,,,participant4,26,59.8136129567,male,trial,2017_May_25_1750,
,,0.36,"[0, 0]",/sounds/legit/equal.wav,,,,,9,29,344,2,,,,,,,,,,,,,,,left,0.368817090988,,,,,participant4,26,59.8136129567,male,trial,2017_May_25_1750,
,,0.1,"[-4.5, 0]",/sounds/legit/left60.wav,,,,,9,30,345,25,,,,,,,,,,,,,,,left,0.435855865479,,,,,participant4,26,59.8136129567,male,trial,2017_May_25_1750,
,,0.23,"[6.75, 0]",/sounds/legit/right100.wav,,,,,9,31,346,16,,,,,,,,,,,,,,,right,0.25183391571,,,,,participant4,26,59.8136129567,male,trial,2017_May_25_1750,
,,0.23,"[0, 0]",/sounds/legit/equal.wav,,,,,9,32,347,1,,,,,,,,,,,,,,,left,0.419320106506,,,,,participant4,26,59.8136129567,male,trial,2017_May_25_1750,
,,0.49,"[-4.5, 0]",/sounds/legit/left60.wav,,,,,9,33,348,28,,,,,,,,,,,,,,,left,0.318505048752,,,,,participant4,26,59.8136129567,male,trial,2017_May_25_1750,
,,0.36,"[4.5, 0]",/sounds/legit/right60.wav,,,,,9,34,349,12,,,,,,,,,,,,,,,right,0.585919141769,,,,,participant4,26,59.8136129567,male,trial,2017_May_25_1750,
,,,,,,,,,,,,,,,,,,,,,,,,,,,,,space,58.593187809,,,participant4,26,59.8136129567,male,trial,2017_May_25_1750,
,,0.23,"[2.25, 0]",/sounds/legit/right30.wav,,,,,,,,,0,0,0,6,,,,,,,,,,,,,,,right,1.28757596016,participant4,26,59.8136129567,male,trial,2017_May_25_1750,
,,0.62,"[0, 0]",/sounds/legit/equal.wav,,,,,,,,,0,1,1,4,,,,,,,,,,,,,,,left,1.03708100319,participant4,26,59.8136129567,male,trial,2017_May_25_1750,
,,0.1,"[2.25, 0]",/sounds/legit/right30.wav,,,,,,,,,0,2,2,5,,,,,,,,,,,,,,,right,0.318401098251,participant4,26,59.8136129567,male,trial,2017_May_25_1750,
,,0.62,"[-6.75, 0]",/sounds/legit/left100.wav,,,,,,,,,0,3,3,34,,,,,,,,,,,,,,,left,0.252321958542,participant4,26,59.8136129567,male,trial,2017_May_25_1750,
,,0.36,"[4.5, 0]",/sounds/legit/right60.wav,,,,,,,,,0,4,4,12,,,,,,,,,,,,,,,right,0.953497886658,participant4,26,59.8136129567,male,trial,2017_May_25_1750,
,,0.49,"[6.75, 0]",/sounds/legit/right100.wav,,,,,,,,,0,5,5,18,,,,,,,,,,,,,,,right,0.869994163513,participant4,26,59.8136129567,male,trial,2017_May_25_1750,
,,0.1,"[-2.25, 0]",/sounds/legit/left30.wav,,,,,,,,,0,6,6,20,,,,,,,,,,,,,,,left,0.301825046539,participant4,26,59.8136129567,male,trial,2017_May_25_1750,
,,0.49,"[6.75, 0]",/sounds/legit/right100.wav,,,,,,,,,0,7,7,18,,,,,,,,,,,,,,,right,0.235414028168,participant4,26,59.8136129567,male,trial,2017_May_25_1750,
,,0.1,"[0, 0]",/sounds/legit/equal.wav,,,,,,,,,0,8,8,0,,,,,,,,,,,,,,,left,0.652648925781,participant4,26,59.8136129567,male,trial,2017_May_25_1750,
,,0.23,"[-6.75, 0]",/sounds/legit/left100.wav,,,,,,,,,0,9,9,31,,,,,,,,,,,,,,,left,0.385243177414,participant4,26,59.8136129567,male,trial,2017_May_25_1750,
,,0.62,"[-4.5, 0]",/sounds/legit/left60.wav,,,,,,,,,0,10,10,29,,,,,,,,,,,,,,,left,0.502584934235,participant4,26,59.8136129567,male,trial,2017_May_25_1750,
,,0.62,"[-4.5, 0]",/sounds/legit/left60.wav,,,,,,,,,0,11,11,29,,,,,,,,,,,,,,,left,0.268620014191,participant4,26,59.8136129567,male,trial,2017_May_25_1750,
,,0.49,"[-2.25, 0]",/sounds/legit/left30.wav,,,,,,,,,0,12,12,23,,,,,,,,,,,,,,,left,0.335280895233,participant4,26,59.8136129567,male,trial,2017_May_25_1750,
,,0.62,"[4.5, 0]",/sounds/legit/right60.wav,,,,,,,,,0,13,13,14,,,,,,,,,,,,,,,right,0.218549966812,participant4,26,59.8136129567,male,trial,2017_May_25_1750,
,,0.62,"[-2.25, 0]",/sounds/legit/left30.wav,,,,,,,,,0,14,14,24,,,,,,,,,,,,,,,left,0.302062988281,participant4,26,59.8136129567,male,trial,2017_May_25_1750,
,,0.62,"[-6.75, 0]",/sounds/legit/left100.wav,,,,,,,,,0,15,15,34,,,,,,,,,,,,,,,left,0.23533821106,participant4,26,59.8136129567,male,trial,2017_May_25_1750,
,,0.36,"[-4.5, 0]",/sounds/legit/left60.wav,,,,,,,,,0,16,16,27,,,,,,,,,,,,,,,left,0.268995046616,participant4,26,59.8136129567,male,trial,2017_May_25_1750,
,,0.62,"[0, 0]",/sounds/legit/equal.wav,,,,,,,,,0,17,17,4,,,,,,,,,,,,,,,right,0.552562952042,participant4,26,59.8136129567,male,trial,2017_May_25_1750,
,,0.62,"[0, 0]",/sounds/legit/equal.wav,,,,,,,,,0,18,18,4,,,,,,,,,,,,,,,right,0.552314043045,participant4,26,59.8136129567,male,trial,2017_May_25_1750,
,,0.1,"[6.75, 0]",/sounds/legit/right100.wav,,,,,,,,,0,19,19,15,,,,,,,,,,,,,,,right,0.335457086563,participant4,26,59.8136129567,male,trial,2017_May_25_1750,
,,0.1,"[6.75, 0]",/sounds/legit/right100.wav,,,,,,,,,0,20,20,15,,,,,,,,,,,,,,,right,0.301898956299,participant4,26,59.8136129567,male,trial,2017_May_25_1750,
,,0.36,"[-2.25, 0]",/sounds/legit/left30.wav,,,,,,,,,0,21,21,22,,,,,,,,,,,,,,,left,0.285182952881,participant4,26,59.8136129567,male,trial,2017_May_25_1750,
,,0.36,"[4.5, 0]",/sounds/legit/right60.wav,,,,,,,,,0,22,22,12,,,,,,,,,,,,,,,right,0.268558979034,participant4,26,59.8136129567,male,trial,2017_May_25_1750,
,,0.1,"[-6.75, 0]",/sounds/legit/left100.wav,,,,,,,,,0,23,23,30,,,,,,,,,,,,,,,left,0.553077936172,participant4,26,59.8136129567,male,trial,2017_May_25_1750,
,,0.62,"[-6.75, 0]",/sounds/legit/left100.wav,,,,,,,,,0,24,24,34,,,,,,,,,,,,,,,left,0.252158880234,participant4,26,59.8136129567,male,trial,2017_May_25_1750,
,,0.36,"[-4.5, 0]",/sounds/legit/left60.wav,,,,,,,,,0,25,25,27,,,,,,,,,,,,,,,left,0.268733024597,participant4,26,59.8136129567,male,trial,2017_May_25_1750,
,,0.49,"[-6.75, 0]",/sounds/legit/left100.wav,,,,,,,,,0,26,26,33,,,,,,,,,,,,,,,left,0.218238115311,participant4,26,59.8136129567,male,trial,2017_May_25_1750,
,,0.23,"[2.25, 0]",/sounds/legit/right30.wav,,,,,,,,,0,27,27,6,,,,,,,,,,,,,,,right,0.418972015381,participant4,26,59.8136129567,male,trial,2017_May_25_1750,
,,0.23,"[4.5, 0]",/sounds/legit/right60.wav,,,,,,,,,0,28,28,11,,,,,,,,,,,,,,,right,0.301783800125,participant4,26,59.8136129567,male,trial,2017_May_25_1750,
,,0.62,"[0, 0]",/sounds/legit/equal.wav,,,,,,,,,0,29,29,4,,,,,,,,,,,,,,,left,0.636140108109,participant4,26,59.8136129567,male,trial,2017_May_25_1750,
,,0.1,"[-6.75, 0]",/sounds/legit/left100.wav,,,,,,,,,0,30,30,30,,,,,,,,,,,,,,,left,0.168478965759,participant4,26,59.8136129567,male,trial,2017_May_25_1750,
,,0.36,"[-6.75, 0]",/sounds/legit/left100.wav,,,,,,,,,0,31,31,32,,,,,,,,,,,,,,,left,0.30211687088,participant4,26,59.8136129567,male,trial,2017_May_25_1750,
,,0.49,"[-4.5, 0]",/sounds/legit/left60.wav,,,,,,,,,0,32,32,28,,,,,,,,,,,,,,,left,0.485738992691,participant4,26,59.8136129567,male,trial,2017_May_25_1750,
,,0.23,"[-2.25, 0]",/sounds/legit/left30.wav,,,,,,,,,0,33,33,21,,,,,,,,,,,,,,,left,0.418688058853,participant4,26,59.8136129567,male,trial,2017_May_25_1750,
,,0.36,"[6.75, 0]",/sounds/legit/right100.wav,,,,,,,,,0,34,34,17,,,,,,,,,,,,,,,right,0.21831703186,participant4,26,59.8136129567,male,trial,2017_May_25_1750,
,,0.23,"[6.75, 0]",/sounds/legit/right100.wav,,,,,,,,,1,0,35,16,,,,,,,,,,,,,,,right,0.168484926224,participant4,26,59.8136129567,male,trial,2017_May_25_1750,
,,0.1,"[6.75, 0]",/sounds/legit/right100.wav,,,,,,,,,1,1,36,15,,,,,,,,,,,,,,,right,0.235029935837,participant4,26,59.8136129567,male,trial,2017_May_25_1750,
,,0.49,"[0, 0]",/sounds/legit/equal.wav,,,,,,,,,1,2,37,3,,,,,,,,,,,,,,,right,0.435516834259,participant4,26,59.8136129567,male,trial,2017_May_25_1750,
,,0.49,"[2.25, 0]",/sounds/legit/right30.wav,,,,,,,,,1,3,38,8,,,,,,,,,,,,,,,right,0.218121051788,participant4,26,59.8136129567,male,trial,2017_May_25_1750,
,,0.62,"[4.5, 0]",/sounds/legit/right60.wav,,,,,,,,,1,4,39,14,,,,,,,,,,,,,,,right,0.201776027679,participant4,26,59.8136129567,male,trial,2017_May_25_1750,
,,0.36,"[4.5, 0]",/sounds/legit/right60.wav,,,,,,,,,1,5,40,12,,,,,,,,,,,,,,,right,0.151307821274,participant4,26,59.8136129567,male,trial,2017_May_25_1750,
,,0.49,"[0, 0]",/sounds/legit/equal.wav,,,,,,,,,1,6,41,3,,,,,,,,,,,,,,,right,0.118173122406,participant4,26,59.8136129567,male,trial,2017_May_25_1750,
,,0.62,"[2.25, 0]",/sounds/legit/right30.wav,,,,,,,,,1,7,42,9,,,,,,,,,,,,,,,right,0.0681691169739,participant4,26,59.8136129567,male,trial,2017_May_25_1750,
,,0.1,"[-2.25, 0]",/sounds/legit/left30.wav,,,,,,,,,1,8,43,20,,,,,,,,,,,,,,,left,0.235203027725,participant4,26,59.8136129567,male,trial,2017_May_25_1750,
,,0.1,"[-2.25, 0]",/sounds/legit/left30.wav,,,,,,,,,1,9,44,20,,,,,,,,,,,,,,,left,0.0350489616394,participant4,26,59.8136129567,male,trial,2017_May_25_1750,
,,0.62,"[4.5, 0]",/sounds/legit/right60.wav,,,,,,,,,1,10,45,14,,,,,,,,,,,,,,,right,0.101374149323,participant4,26,59.8136129567,male,trial,2017_May_25_1750,
,,0.36,"[4.5, 0]",/sounds/legit/right60.wav,,,,,,,,,1,11,46,12,,,,,,,,,,,,,,,right,0.0344440937042,participant4,26,59.8136129567,male,trial,2017_May_25_1750,
,,0.1,"[0, 0]",/sounds/legit/equal.wav,,,,,,,,,1,12,47,0,,,,,,,,,,,,,,,right,0.0680110454559,participant4,26,59.8136129567,male,trial,2017_May_25_1750,
,,0.36,"[-2.25, 0]",/sounds/legit/left30.wav,,,,,,,,,1,13,48,22,,,,,,,,,,,,,,,left,0.184864997864,participant4,26,59.8136129567,male,trial,2017_May_25_1750,
,,0.62,"[6.75, 0]",/sounds/legit/right100.wav,,,,,,,,,1,14,49,19,,,,,,,,,,,,,,,right,0.084862947464,participant4,26,59.8136129567,male,trial,2017_May_25_1750,
,,0.49,"[0, 0]",/sounds/legit/equal.wav,,,,,,,,,1,15,50,3,,,,,,,,,,,,,,,right,0.0679061412811,participant4,26,59.8136129567,male,trial,2017_May_25_1750,
,,0.23,"[4.5, 0]",/sounds/legit/right60.wav,,,,,,,,,1,16,51,11,,,,,,,,,,,,,,,right,0.652518033981,participant4,26,59.8136129567,male,trial,2017_May_25_1750,
,,0.62,"[-6.75, 0]",/sounds/legit/left100.wav,,,,,,,,,1,17,52,34,,,,,,,,,,,,,,,left,0.101644039154,participant4,26,59.8136129567,male,trial,2017_May_25_1750,
,,0.23,"[2.25, 0]",/sounds/legit/right30.wav,,,,,,,,,1,18,53,6,,,,,,,,,,,,,,,right,0.285327196121,participant4,26,59.8136129567,male,trial,2017_May_25_1750,
,,0.62,"[-2.25, 0]",/sounds/legit/left30.wav,,,,,,,,,1,19,54,24,,,,,,,,,,,,,,,left,0.26847577095,participant4,26,59.8136129567,male,trial,2017_May_25_1750,
,,0.23,"[-6.75, 0]",/sounds/legit/left100.wav,,,,,,,,,1,20,55,31,,,,,,,,,,,,,,,left,0.251885890961,participant4,26,59.8136129567,male,trial,2017_May_25_1750,
,,0.62,"[-2.25, 0]",/sounds/legit/left30.wav,,,,,,,,,1,21,56,24,,,,,,,,,,,,,,,left,0.151494979858,participant4,26,59.8136129567,male,trial,2017_May_25_1750,
,,0.62,"[6.75, 0]",/sounds/legit/right100.wav,,,,,,,,,1,22,57,19,,,,,,,,,,,,,,,right,0.167387962341,participant4,26,59.8136129567,male,trial,2017_May_25_1750,
,,0.1,"[-6.75, 0]",/sounds/legit/left100.wav,,,,,,,,,1,23,58,30,,,,,,,,,,,,,,,left,0.085382938385,participant4,26,59.8136129567,male,trial,2017_May_25_1750,
,,0.1,"[-4.5, 0]",/sounds/legit/left60.wav,,,,,,,,,1,24,59,25,,,,,,,,,,,,,,,left,0.1681599617,participant4,26,59.8136129567,male,trial,2017_May_25_1750,
,,0.1,"[2.25, 0]",/sounds/legit/right30.wav,,,,,,,,,1,25,60,5,,,,,,,,,,,,,,,right,0.168212890625,participant4,26,59.8136129567,male,trial,2017_May_25_1750,
,,0.1,"[-4.5, 0]",/sounds/legit/left60.wav,,,,,,,,,1,26,61,25,,,,,,,,,,,,,,,left,0.16820192337,participant4,26,59.8136129567,male,trial,2017_May_25_1750,
,,0.49,"[-2.25, 0]",/sounds/legit/left30.wav,,,,,,,,,1,27,62,23,,,,,,,,,,,,,,,left,0.20191192627,participant4,26,59.8136129567,male,trial,2017_May_25_1750,
,,0.23,"[-6.75, 0]",/sounds/legit/left100.wav,,,,,,,,,1,28,63,31,,,,,,,,,,,,,,,left,0.135527849197,participant4,26,59.8136129567,male,trial,2017_May_25_1750,
,,0.49,"[0, 0]",/sounds/legit/equal.wav,,,,,,,,,1,29,64,3,,,,,,,,,,,,,,,left,0.252018928528,participant4,26,59.8136129567,male,trial,2017_May_25_1750,
,,0.23,"[2.25, 0]",/sounds/legit/right30.wav,,,,,,,,,1,30,65,6,,,,,,,,,,,,,,,right,0.068295955658,participant4,26,59.8136129567,male,trial,2017_May_25_1750,
,,0.62,"[6.75, 0]",/sounds/legit/right100.wav,,,,,,,,,1,31,66,19,,,,,,,,,,,,,,,right,0.118196964264,participant4,26,59.8136129567,male,trial,2017_May_25_1750,
,,0.62,"[2.25, 0]",/sounds/legit/right30.wav,,,,,,,,,1,32,67,9,,,,,,,,,,,,,,,right,0.185070037842,participant4,26,59.8136129567,male,trial,2017_May_25_1750,
,,0.36,"[0, 0]",/sounds/legit/equal.wav,,,,,,,,,1,33,68,2,,,,,,,,,,,,,,,right,0.201685190201,participant4,26,59.8136129567,male,trial,2017_May_25_1750,
,,0.1,"[0, 0]",/sounds/legit/equal.wav,,,,,,,,,1,34,69,0,,,,,,,,,,,,,,,right,0.134037971497,participant4,26,59.8136129567,male,trial,2017_May_25_1750,
,,0.1,"[2.25, 0]",/sounds/legit/right30.wav,,,,,,,,,2,0,70,5,,,,,,,,,,,,,,,right,0.151709079742,participant4,26,59.8136129567,male,trial,2017_May_25_1750,
,,0.49,"[6.75, 0]",/sounds/legit/right100.wav,,,,,,,,,2,1,71,18,,,,,,,,,,,,,,,right,0.184968948364,participant4,26,59.8136129567,male,trial,2017_May_25_1750,
,,0.62,"[-2.25, 0]",/sounds/legit/left30.wav,,,,,,,,,2,2,72,24,,,,,,,,,,,,,,,left,0.352193832397,participant4,26,59.8136129567,male,trial,2017_May_25_1750,
,,0.36,"[-2.25, 0]",/sounds/legit/left30.wav,,,,,,,,,2,3,73,22,,,,,,,,,,,,,,,left,0.101219892502,participant4,26,59.8136129567,male,trial,2017_May_25_1750,
,,0.62,"[6.75, 0]",/sounds/legit/right100.wav,,,,,,,,,2,4,74,19,,,,,,,,,,,,,,,right,0.0515480041504,participant4,26,59.8136129567,male,trial,2017_May_25_1750,
,,0.49,"[-2.25, 0]",/sounds/legit/left30.wav,,,,,,,,,2,5,75,23,,,,,,,,,,,,,,,left,0.200692176819,participant4,26,59.8136129567,male,trial,2017_May_25_1750,
,,0.36,"[-4.5, 0]",/sounds/legit/left60.wav,,,,,,,,,2,6,76,27,,,,,,,,,,,,,,,left,0.0349719524384,participant4,26,59.8136129567,male,trial,2017_May_25_1750,
,,0.23,"[-4.5, 0]",/sounds/legit/left60.wav,,,,,,,,,2,7,77,26,,,,,,,,,,,,,,,left,0.0514721870422,participant4,26,59.8136129567,male,trial,2017_May_25_1750,
,,0.62,"[-6.75, 0]",/sounds/legit/left100.wav,,,,,,,,,2,8,78,34,,,,,,,,,,,,,,,left,0.302181959152,participant4,26,59.8136129567,male,trial,2017_May_25_1750,
,,0.23,"[6.75, 0]",/sounds/legit/right100.wav,,,,,,,,,2,9,79,16,,,,,,,,,,,,,,,right,0.0680520534515,participant4,26,59.8136129567,male,trial,2017_May_25_1750,
,,0.62,"[2.25, 0]",/sounds/legit/right30.wav,,,,,,,,,2,10,80,9,,,,,,,,,,,,,,,right,0.318914175034,participant4,26,59.8136129567,male,trial,2017_May_25_1750,
,,0.23,"[6.75, 0]",/sounds/legit/right100.wav,,,,,,,,,2,11,81,16,,,,,,,,,,,,,,,right,0.201826095581,participant4,26,59.8136129567,male,trial,2017_May_25_1750,
,,0.36,"[2.25, 0]",/sounds/legit/right30.wav,,,,,,,,,2,12,82,7,,,,,,,,,,,,,,,right,0.101538181305,participant4,26,59.8136129567,male,trial,2017_May_25_1750,
,,0.1,"[-6.75, 0]",/sounds/legit/left100.wav,,,,,,,,,2,13,83,30,,,,,,,,,,,,,,,left,0.0516929626465,participant4,26,59.8136129567,male,trial,2017_May_25_1750,
,,0.49,"[-4.5, 0]",/sounds/legit/left60.wav,,,,,,,,,2,14,84,28,,,,,,,,,,,,,,,left,0.0347690582275,participant4,26,59.8136129567,male,trial,2017_May_25_1750,
,,0.62,"[-4.5, 0]",/sounds/legit/left60.wav,,,,,,,,,2,15,85,29,,,,,,,,,,,,,,,left,0.135601043701,participant4,26,59.8136129567,male,trial,2017_May_25_1750,
,,0.49,"[4.5, 0]",/sounds/legit/right60.wav,,,,,,,,,2,16,86,13,,,,,,,,,,,,,,,right,0.101433992386,participant4,26,59.8136129567,male,trial,2017_May_25_1750,
,,0.62,"[2.25, 0]",/sounds/legit/right30.wav,,,,,,,,,2,17,87,9,,,,,,,,,,,,,,,right,0.168412923813,participant4,26,59.8136129567,male,trial,2017_May_25_1750,
,,0.49,"[4.5, 0]",/sounds/legit/right60.wav,,,,,,,,,2,18,88,13,,,,,,,,,,,,,,,right,0.0847051143646,participant4,26,59.8136129567,male,trial,2017_May_25_1750,
,,0.1,"[-6.75, 0]",/sounds/legit/left100.wav,,,,,,,,,2,19,89,30,,,,,,,,,,,,,,,left,0.0345859527588,participant4,26,59.8136129567,male,trial,2017_May_25_1750,
,,0.62,"[0, 0]",/sounds/legit/equal.wav,,,,,,,,,2,20,90,4,,,,,,,,,,,,,,,right,0.301919937134,participant4,26,59.8136129567,male,trial,2017_May_25_1750,
,,0.49,"[0, 0]",/sounds/legit/equal.wav,,,,,,,,,2,21,91,3,,,,,,,,,,,,,,,right,0.168478965759,participant4,26,59.8136129567,male,trial,2017_May_25_1750,
,,0.36,"[-4.5, 0]",/sounds/legit/left60.wav,,,,,,,,,2,22,92,27,,,,,,,,,,,,,,,left,0.0847280025482,participant4,26,59.8136129567,male,trial,2017_May_25_1750,
,,0.62,"[0, 0]",/sounds/legit/equal.wav,,,,,,,,,2,23,93,4,,,,,,,,,,,,,,,right,0.0848798751831,participant4,26,59.8136129567,male,trial,2017_May_25_1750,
,,0.1,"[2.25, 0]",/sounds/legit/right30.wav,,,,,,,,,2,24,94,5,,,,,,,,,,,,,,,right,0.0179588794708,participant4,26,59.8136129567,male,trial,2017_May_25_1750,
,,0.23,"[-2.25, 0]",/sounds/legit/left30.wav,,,,,,,,,2,25,95,21,,,,,,,,,,,,,,,left,0.118492126465,participant4,26,59.8136129567,male,trial,2017_May_25_1750,
,,0.62,"[-4.5, 0]",/sounds/legit/left60.wav,,,,,,,,,2,26,96,29,,,,,,,,,,,,,,,left,0.0177638530731,participant4,26,59.8136129567,male,trial,2017_May_25_1750,
,,0.36,"[-2.25, 0]",/sounds/legit/left30.wav,,,,,,,,,2,27,97,22,,,,,,,,,,,,,,,left,0.018031835556,participant4,26,59.8136129567,male,trial,2017_May_25_1750,
,,0.23,"[4.5, 0]",/sounds/legit/right60.wav,,,,,,,,,2,28,98,11,,,,,,,,,,,,,,,right,0.75313615799,participant4,26,59.8136129567,male,trial,2017_May_25_1750,
,,0.23,"[2.25, 0]",/sounds/legit/right30.wav,,,,,,,,,2,29,99,6,,,,,,,,,,,,,,,right,0.201790094376,participant4,26,59.8136129567,male,trial,2017_May_25_1750,
,,0.62,"[-2.25, 0]",/sounds/legit/left30.wav,,,,,,,,,2,30,100,24,,,,,,,,,,,,,,,left,0.13499212265,participant4,26,59.8136129567,male,trial,2017_May_25_1750,
,,0.1,"[6.75, 0]",/sounds/legit/right100.wav,,,,,,,,,2,31,101,15,,,,,,,,,,,,,,,right,0.151617050171,participant4,26,59.8136129567,male,trial,2017_May_25_1750,
,,0.1,"[4.5, 0]",/sounds/legit/right60.wav,,,,,,,,,2,32,102,10,,,,,,,,,,,,,,,right,0.185415029526,participant4,26,59.8136129567,male,trial,2017_May_25_1750,
,,0.23,"[-6.75, 0]",/sounds/legit/left100.wav,,,,,,,,,2,33,103,31,,,,,,,,,,,,,,,left,0.185631990433,participant4,26,59.8136129567,male,trial,2017_May_25_1750,
,,0.1,"[4.5, 0]",/sounds/legit/right60.wav,,,,,,,,,2,34,104,10,,,,,,,,,,,,,,,right,0.235028982162,participant4,26,59.8136129567,male,trial,2017_May_25_1750,
,,0.23,"[-6.75, 0]",/sounds/legit/left100.wav,,,,,,,,,3,0,105,31,,,,,,,,,,,,,,,left,0.068400144577,participant4,26,59.8136129567,male,trial,2017_May_25_1750,
,,0.36,"[6.75, 0]",/sounds/legit/right100.wav,,,,,,,,,3,1,106,17,,,,,,,,,,,,,,,right,0.201752901077,participant4,26,59.8136129567,male,trial,2017_May_25_1750,
,,0.36,"[0, 0]",/sounds/legit/equal.wav,,,,,,,,,3,2,107,2,,,,,,,,,,,,,,,right,0.0346450805664,participant4,26,59.8136129567,male,trial,2017_May_25_1750,
,,0.49,"[-6.75, 0]",/sounds/legit/left100.wav,,,,,,,,,3,3,108,33,,,,,,,,,,,,,,,left,0.0676310062408,participant4,26,59.8136129567,male,trial,2017_May_25_1750,
,,0.1,"[4.5, 0]",/sounds/legit/right60.wav,,,,,,,,,3,4,109,10,,,,,,,,,,,,,,,right,0.268685102463,participant4,26,59.8136129567,male,trial,2017_May_25_1750,
,,0.49,"[2.25, 0]",/sounds/legit/right30.wav,,,,,,,,,3,5,110,8,,,,,,,,,,,,,,,right,0.15071606636,participant4,26,59.8136129567,male,trial,2017_May_25_1750,
,,0.49,"[4.5, 0]",/sounds/legit/right60.wav,,,,,,,,,3,6,111,13,,,,,,,,,,,,,,,right,0.251845121384,participant4,26,59.8136129567,male,trial,2017_May_25_1750,
,,0.36,"[-6.75, 0]",/sounds/legit/left100.wav,,,,,,,,,3,7,112,32,,,,,,,,,,,,,,,left,0.134960174561,participant4,26,59.8136129567,male,trial,2017_May_25_1750,
,,0.62,"[2.25, 0]",/sounds/legit/right30.wav,,,,,,,,,3,8,113,9,,,,,,,,,,,,,,,right,0.218584060669,participant4,26,59.8136129567,male,trial,2017_May_25_1750,
,,0.62,"[6.75, 0]",/sounds/legit/right100.wav,,,,,,,,,3,9,114,19,,,,,,,,,,,,,,,right,0.251892089844,participant4,26,59.8136129567,male,trial,2017_May_25_1750,
,,0.1,"[4.5, 0]",/sounds/legit/right60.wav,,,,,,,,,3,10,115,10,,,,,,,,,,,,,,,right,0.234195947647,participant4,26,59.8136129567,male,trial,2017_May_25_1750,
,,0.36,"[6.75, 0]",/sounds/legit/right100.wav,,,,,,,,,3,11,116,17,,,,,,,,,,,,,,,right,0.819673061371,participant4,26,59.8136129567,male,trial,2017_May_25_1750,
,,0.1,"[-4.5, 0]",/sounds/legit/left60.wav,,,,,,,,,3,12,117,25,,,,,,,,,,,,,,,left,0.00134587287903,participant4,26,59.8136129567,male,trial,2017_May_25_1750,
,,0.49,"[2.25, 0]",/sounds/legit/right30.wav,,,,,,,,,3,13,118,8,,,,,,,,,,,,,,,right,0.134962081909,participant4,26,59.8136129567,male,trial,2017_May_25_1750,
,,0.23,"[-4.5, 0]",/sounds/legit/left60.wav,,,,,,,,,3,14,119,26,,,,,,,,,,,,,,,left,0.301882982254,participant4,26,59.8136129567,male,trial,2017_May_25_1750,
,,0.36,"[4.5, 0]",/sounds/legit/right60.wav,,,,,,,,,3,15,120,12,,,,,,,,,,,,,,,right,0.135153055191,participant4,26,59.8136129567,male,trial,2017_May_25_1750,
,,0.62,"[6.75, 0]",/sounds/legit/right100.wav,,,,,,,,,3,16,121,19,,,,,,,,,,,,,,,right,0.0180439949036,participant4,26,59.8136129567,male,trial,2017_May_25_1750,
,,0.1,"[-6.75, 0]",/sounds/legit/left100.wav,,,,,,,,,3,17,122,30,,,,,,,,,,,,,,,left,0.0681238174438,participant4,26,59.8136129567,male,trial,2017_May_25_1750,
,,0.1,"[-2.25, 0]",/sounds/legit/left30.wav,,,,,,,,,3,18,123,20,,,,,,,,,,,,,,,left,0.184952020645,participant4,26,59.8136129567,male,trial,2017_May_25_1750,
,,0.1,"[0, 0]",/sounds/legit/equal.wav,,,,,,,,,3,19,124,0,,,,,,,,,,,,,,,right,0.368888139725,participant4,26,59.8136129567,male,trial,2017_May_25_1750,
,,0.36,"[-2.25, 0]",/sounds/legit/left30.wav,,,,,,,,,3,20,125,22,,,,,,,,,,,,,,,left,0.151673793793,participant4,26,59.8136129567,male,trial,2017_May_25_1750,
,,0.1,"[4.5, 0]",/sounds/legit/right60.wav,,,,,,,,,3,21,126,10,,,,,,,,,,,,,,,right,0.0682470798492,participant4,26,59.8136129567,male,trial,2017_May_25_1750,
,,0.36,"[-4.5, 0]",/sounds/legit/left60.wav,,,,,,,,,3,22,127,27,,,,,,,,,,,,,,,left,0.0514328479767,participant4,26,59.8136129567,male,trial,2017_May_25_1750,
,,0.36,"[0, 0]",/sounds/legit/equal.wav,,,,,,,,,3,23,128,2,,,,,,,,,,,,,,,right,0.168303012848,participant4,26,59.8136129567,male,trial,2017_May_25_1750,
,,0.1,"[-4.5, 0]",/sounds/legit/left60.wav,,,,,,,,,3,24,129,25,,,,,,,,,,,,,,,left,0.0685999393463,participant4,26,59.8136129567,male,trial,2017_May_25_1750,
,,0.1,"[-6.75, 0]",/sounds/legit/left100.wav,,,,,,,,,3,25,130,30,,,,,,,,,,,,,,,left,0.0513110160828,participant4,26,59.8136129567,male,trial,2017_May_25_1750,
,,0.62,"[-2.25, 0]",/sounds/legit/left30.wav,,,,,,,,,3,26,131,24,,,,,,,,,,,,,,,left,0.184958934784,participant4,26,59.8136129567,male,trial,2017_May_25_1750,
,,0.23,"[0, 0]",/sounds/legit/equal.wav,,,,,,,,,3,27,132,1,,,,,,,,,,,,,,,right,0.185149908066,participant4,26,59.8136129567,male,trial,2017_May_25_1750,
,,0.23,"[-4.5, 0]",/sounds/legit/left60.wav,,,,,,,,,3,28,133,26,,,,,,,,,,,,,,,left,0.0514721870422,participant4,26,59.8136129567,male,trial,2017_May_25_1750,
,,0.62,"[6.75, 0]",/sounds/legit/right100.wav,,,,,,,,,3,29,134,19,,,,,,,,,,,,,,,right,0.16855597496,participant4,26,59.8136129567,male,trial,2017_May_25_1750,
,,0.36,"[2.25, 0]",/sounds/legit/right30.wav,,,,,,,,,3,30,135,7,,,,,,,,,,,,,,,right,0.168421983719,participant4,26,59.8136129567,male,trial,2017_May_25_1750,
,,0.23,"[-4.5, 0]",/sounds/legit/left60.wav,,,,,,,,,3,31,136,26,,,,,,,,,,,,,,,left,0.134925842285,participant4,26,59.8136129567,male,trial,2017_May_25_1750,
,,0.1,"[2.25, 0]",/sounds/legit/right30.wav,,,,,,,,,3,32,137,5,,,,,,,,,,,,,,,right,0.0180540084839,participant4,26,59.8136129567,male,trial,2017_May_25_1750,
,,0.62,"[4.5, 0]",/sounds/legit/right60.wav,,,,,,,,,3,33,138,14,,,,,,,,,,,,,,,right,0.11807513237,participant4,26,59.8136129567,male,trial,2017_May_25_1750,
,,0.1,"[4.5, 0]",/sounds/legit/right60.wav,,,,,,,,,3,34,139,10,,,,,,,,,,,,,,,right,0.0511958599091,participant4,26,59.8136129567,male,trial,2017_May_25_1750,
,,0.49,"[2.25, 0]",/sounds/legit/right30.wav,,,,,,,,,4,0,140,8,,,,,,,,,,,,,,,right,0.0181000232697,participant4,26,59.8136129567,male,trial,2017_May_25_1750,
,,0.1,"[-4.5, 0]",/sounds/legit/left60.wav,,,,,,,,,4,1,141,25,,,,,,,,,,,,,,,left,0.0180370807648,participant4,26,59.8136129567,male,trial,2017_May_25_1750,
,,0.49,"[4.5, 0]",/sounds/legit/right60.wav,,,,,,,,,4,2,142,13,,,,,,,,,,,,,,,right,0.185046195984,participant4,26,59.8136129567,male,trial,2017_May_25_1750,
,,0.49,"[6.75, 0]",/sounds/legit/right100.wav,,,,,,,,,4,3,143,18,,,,,,,,,,,,,,,right,0.0513300895691,participant4,26,59.8136129567,male,trial,2017_May_25_1750,
,,0.23,"[-2.25, 0]",/sounds/legit/left30.wav,,,,,,,,,4,4,144,21,,,,,,,,,,,,,,,left,0.168640851974,participant4,26,59.8136129567,male,trial,2017_May_25_1750,
,,0.49,"[-4.5, 0]",/sounds/legit/left60.wav,,,,,,,,,4,5,145,28,,,,,,,,,,,,,,,left,0.133874177933,participant4,26,59.8136129567,male,trial,2017_May_25_1750,
,,0.49,"[-2.25, 0]",/sounds/legit/left30.wav,,,,,,,,,4,6,146,23,,,,,,,,,,,,,,,left,0.0848648548126,participant4,26,59.8136129567,male,trial,2017_May_25_1750,
,,0.36,"[4.5, 0]",/sounds/legit/right60.wav,,,,,,,,,4,7,147,12,,,,,,,,,,,,,,,right,0.118525028229,participant4,26,59.8136129567,male,trial,2017_May_25_1750,
,,0.23,"[-4.5, 0]",/sounds/legit/left60.wav,,,,,,,,,4,8,148,26,,,,,,,,,,,,,,,left,0.0515460968018,participant4,26,59.8136129567,male,trial,2017_May_25_1750,
,,0.1,"[-4.5, 0]",/sounds/legit/left60.wav,,,,,,,,,4,9,149,25,,,,,,,,,,,,,,,left,0.151652097702,participant4,26,59.8136129567,male,trial,2017_May_25_1750,
,,0.1,"[0, 0]",/sounds/legit/equal.wav,,,,,,,,,4,10,150,0,,,,,,,,,,,,,,,right,0.118343830109,participant4,26,59.8136129567,male,trial,2017_May_25_1750,
,,0.36,"[6.75, 0]",/sounds/legit/right100.wav,,,,,,,,,4,11,151,17,,,,,,,,,,,,,,,right,0.0512540340424,participant4,26,59.8136129567,male,trial,2017_May_25_1750,
,,0.36,"[2.25, 0]",/sounds/legit/right30.wav,,,,,,,,,4,12,152,7,,,,,,,,,,,,,,,right,0.00144100189209,participant4,26,59.8136129567,male,trial,2017_May_25_1750,
,,0.1,"[4.5, 0]",/sounds/legit/right60.wav,,,,,,,,,4,13,153,10,,,,,,,,,,,,,,,right,0.335603952408,participant4,26,59.8136129567,male,trial,2017_May_25_1750,
,,0.1,"[4.5, 0]",/sounds/legit/right60.wav,,,,,,,,,4,14,154,10,,,,,,,,,,,,,,,right,0.0178868770599,participant4,26,59.8136129567,male,trial,2017_May_25_1750,
,,0.1,"[-2.25, 0]",/sounds/legit/left30.wav,,,,,,,,,4,15,155,20,,,,,,,,,,,,,,,left,0.0347499847412,participant4,26,59.8136129567,male,trial,2017_May_25_1750,
,,0.23,"[-4.5, 0]",/sounds/legit/left60.wav,,,,,,,,,4,16,156,26,,,,,,,,,,,,,,,left,0.00137090682983,participant4,26,59.8136129567,male,trial,2017_May_25_1750,
,,0.23,"[6.75, 0]",/sounds/legit/right100.wav,,,,,,,,,4,17,157,16,,,,,,,,,,,,,,,right,0.101436853409,participant4,26,59.8136129567,male,trial,2017_May_25_1750,
,,0.23,"[-6.75, 0]",/sounds/legit/left100.wav,,,,,,,,,4,18,158,31,,,,,,,,,,,,,,,left,0.0182740688324,participant4,26,59.8136129567,male,trial,2017_May_25_1750,
,,0.23,"[0, 0]",/sounds/legit/equal.wav,,,,,,,,,4,19,159,1,,,,,,,,,,,,,,,right,0.185165882111,participant4,26,59.8136129567,male,trial,2017_May_25_1750,
,,0.1,"[2.25, 0]",/sounds/legit/right30.wav,,,,,,,,,4,20,160,5,,,,,,,,,,,,,,,right,0.201803922653,participant4,26,59.8136129567,male,trial,2017_May_25_1750,
,,0.23,"[-6.75, 0]",/sounds/legit/left100.wav,,,,,,,,,4,21,161,31,,,,,,,,,,,,,,,left,0.101384878159,participant4,26,59.8136129567,male,trial,2017_May_25_1750,
,,0.49,"[6.75, 0]",/sounds/legit/right100.wav,,,,,,,,,4,22,162,18,,,,,,,,,,,,,,,right,0.786320209503,participant4,26,59.8136129567,male,trial,2017_May_25_1750,
,,0.23,"[-4.5, 0]",/sounds/legit/left60.wav,,,,,,,,,4,23,163,26,,,,,,,,,,,,,,,left,0.26852107048,participant4,26,59.8136129567,male,trial,2017_May_25_1750,
,,0.49,"[4.5, 0]",/sounds/legit/right60.wav,,,,,,,,,4,24,164,13,,,,,,,,,,,,,,,right,0.719671010971,participant4,26,59.8136129567,male,trial,2017_May_25_1750,
,,0.36,"[4.5, 0]",/sounds/legit/right60.wav,,,,,,,,,4,25,165,12,,,,,,,,,,,,,,,right,0.00132703781128,participant4,26,59.8136129567,male,trial,2017_May_25_1750,
,,0.23,"[0, 0]",/sounds/legit/equal.wav,,,,,,,,,4,26,166,1,,,,,,,,,,,,,,,right,0.084869146347,participant4,26,59.8136129567,male,trial,2017_May_25_1750,
,,0.49,"[-4.5, 0]",/sounds/legit/left60.wav,,,,,,,,,4,27,167,28,,,,,,,,,,,,,,,left,0.0672190189362,participant4,26,59.8136129567,male,trial,2017_May_25_1750,
,,0.36,"[-6.75, 0]",/sounds/legit/left100.wav,,,,,,,,,4,28,168,32,,,,,,,,,,,,,,,left,0.0681462287903,participant4,26,59.8136129567,male,trial,2017_May_25_1750,
,,0.36,"[0, 0]",/sounds/legit/equal.wav,,,,,,,,,4,29,169,2,,,,,,,,,,,,,,,right,0.118376016617,participant4,26,59.8136129567,male,trial,2017_May_25_1750,
,,0.36,"[2.25, 0]",/sounds/legit/right30.wav,,,,,,,,,4,30,170,7,,,,,,,,,,,,,,,right,0.0848159790039,participant4,26,59.8136129567,male,trial,2017_May_25_1750,
,,0.23,"[6.75, 0]",/sounds/legit/right100.wav,,,,,,,,,4,31,171,16,,,,,,,,,,,,,,,right,0.285473108292,participant4,26,59.8136129567,male,trial,2017_May_25_1750,
,,0.1,"[6.75, 0]",/sounds/legit/right100.wav,,,,,,,,,4,32,172,15,,,,,,,,,,,,,,,right,0.184861898422,participant4,26,59.8136129567,male,trial,2017_May_25_1750,
,,0.36,"[-4.5, 0]",/sounds/legit/left60.wav,,,,,,,,,4,33,173,27,,,,,,,,,,,,,,,left,0.284250974655,participant4,26,59.8136129567,male,trial,2017_May_25_1750,
,,0.1,"[-6.75, 0]",/sounds/legit/left100.wav,,,,,,,,,4,34,174,30,,,,,,,,,,,,,,,left,0.235132932663,participant4,26,59.8136129567,male,trial,2017_May_25_1750,
,,0.49,"[0, 0]",/sounds/legit/equal.wav,,,,,,,,,5,0,175,3,,,,,,,,,,,,,,,right,0.185286045074,participant4,26,59.8136129567,male,trial,2017_May_25_1750,
,,0.62,"[6.75, 0]",/sounds/legit/right100.wav,,,,,,,,,5,1,176,19,,,,,,,,,,,,,,,right,0.0684368610382,participant4,26,59.8136129567,male,trial,2017_May_25_1750,
,,0.36,"[6.75, 0]",/sounds/legit/right100.wav,,,,,,,,,5,2,177,17,,,,,,,,,,,,,,,right,0.235239028931,participant4,26,59.8136129567,male,trial,2017_May_25_1750,
,,0.36,"[2.25, 0]",/sounds/legit/right30.wav,,,,,,,,,5,3,178,7,,,,,,,,,,,,,,,right,0.184165000916,participant4,26,59.8136129567,male,trial,2017_May_25_1750,
,,0.36,"[0, 0]",/sounds/legit/equal.wav,,,,,,,,,5,4,179,2,,,,,,,,,,,,,,,right,0.135137081146,participant4,26,59.8136129567,male,trial,2017_May_25_1750,
,,0.1,"[6.75, 0]",/sounds/legit/right100.wav,,,,,,,,,5,5,180,15,,,,,,,,,,,,,,,right,0.101691007614,participant4,26,59.8136129567,male,trial,2017_May_25_1750,
,,0.23,"[6.75, 0]",/sounds/legit/right100.wav,,,,,,,,,5,6,181,16,,,,,,,,,,,,,,,right,0.0344851016998,participant4,26,59.8136129567,male,trial,2017_May_25_1750,
,,0.36,"[2.25, 0]",/sounds/legit/right30.wav,,,,,,,,,5,7,182,7,,,,,,,,,,,,,,,right,0.15161895752,participant4,26,59.8136129567,male,trial,2017_May_25_1750,
,,0.23,"[-2.25, 0]",/sounds/legit/left30.wav,,,,,,,,,5,8,183,21,,,,,,,,,,,,,,,left,0.168531179428,participant4,26,59.8136129567,male,trial,2017_May_25_1750,
,,0.1,"[0, 0]",/sounds/legit/equal.wav,,,,,,,,,5,9,184,0,,,,,,,,,,,,,,,right,0.218342065811,participant4,26,59.8136129567,male,trial,2017_May_25_1750,
,,0.62,"[2.25, 0]",/sounds/legit/right30.wav,,,,,,,,,5,10,185,9,,,,,,,,,,,,,,,right,0.0346791744232,participant4,26,59.8136129567,male,trial,2017_May_25_1750,
,,0.23,"[-2.25, 0]",/sounds/legit/left30.wav,,,,,,,,,5,11,186,21,,,,,,,,,,,,,,,left,0.100569963455,participant4,26,59.8136129567,male,trial,2017_May_25_1750,
,,0.23,"[6.75, 0]",/sounds/legit/right100.wav,,,,,,,,,5,12,187,16,,,,,,,,,,,,,,,right,0.803116798401,participant4,26,59.8136129567,male,trial,2017_May_25_1750,
,,0.49,"[-6.75, 0]",/sounds/legit/left100.wav,,,,,,,,,5,13,188,33,,,,,,,,,,,,,,,left,0.0348780155182,participant4,26,59.8136129567,male,trial,2017_May_25_1750,
,,0.62,"[-6.75, 0]",/sounds/legit/left100.wav,,,,,,,,,5,14,189,34,,,,,,,,,,,,,,,left,0.753067016602,participant4,26,59.8136129567,male,trial,2017_May_25_1750,
,,0.1,"[4.5, 0]",/sounds/legit/right60.wav,,,,,,,,,5,15,190,10,,,,,,,,,,,,,,,right,0.48567199707,participant4,26,59.8136129567,male,trial,2017_May_25_1750,
,,0.49,"[4.5, 0]",/sounds/legit/right60.wav,,,,,,,,,5,16,191,13,,,,,,,,,,,,,,,right,0.0848069190979,participant4,26,59.8136129567,male,trial,2017_May_25_1750,
,,0.62,"[4.5, 0]",/sounds/legit/right60.wav,,,,,,,,,5,17,192,14,,,,,,,,,,,,,,,right,0.636220932007,participant4,26,59.8136129567,male,trial,2017_May_25_1750,
,,0.62,"[4.5, 0]",/sounds/legit/right60.wav,,,,,,,,,5,18,193,14,,,,,,,,,,,,,,,right,0.151533126831,participant4,26,59.8136129567,male,trial,2017_May_25_1750,
,,0.23,"[-2.25, 0]",/sounds/legit/left30.wav,,,,,,,,,5,19,194,21,,,,,,,,,,,,,,,left,0.134771823883,participant4,26,59.8136129567,male,trial,2017_May_25_1750,
,,0.36,"[2.25, 0]",/sounds/legit/right30.wav,,,,,,,,,5,20,195,7,,,,,,,,,,,,,,,right,0.101449012756,participant4,26,59.8136129567,male,trial,2017_May_25_1750,
,,0.49,"[6.75, 0]",/sounds/legit/right100.wav,,,,,,,,,5,21,196,18,,,,,,,,,,,,,,,right,0.18497800827,participant4,26,59.8136129567,male,trial,2017_May_25_1750,
,,0.36,"[-2.25, 0]",/sounds/legit/left30.wav,,,,,,,,,5,22,197,22,,,,,,,,,,,,,,,left,0.235244035721,participant4,26,59.8136129567,male,trial,2017_May_25_1750,
,,0.62,"[-6.75, 0]",/sounds/legit/left100.wav,,,,,,,,,5,23,198,34,,,,,,,,,,,,,,,left,0.135174036026,participant4,26,59.8136129567,male,trial,2017_May_25_1750,
,,0.36,"[-4.5, 0]",/sounds/legit/left60.wav,,,,,,,,,5,24,199,27,,,,,,,,,,,,,,,left,0.0680439472198,participant4,26,59.8136129567,male,trial,2017_May_25_1750,
,,0.49,"[-2.25, 0]",/sounds/legit/left30.wav,,,,,,,,,5,25,200,23,,,,,,,,,,,,,,,left,0.0848228931427,participant4,26,59.8136129567,male,trial,2017_May_25_1750,
,,0.49,"[2.25, 0]",/sounds/legit/right30.wav,,,,,,,,,5,26,201,8,,,,,,,,,,,,,,,right,0.185039997101,participant4,26,59.8136129567,male,trial,2017_May_25_1750,
,,0.49,"[4.5, 0]",/sounds/legit/right60.wav,,,,,,,,,5,27,202,13,,,,,,,,,,,,,,,right,0.184897899628,participant4,26,59.8136129567,male,trial,2017_May_25_1750,
,,0.36,"[4.5, 0]",/sounds/legit/right60.wav,,,,,,,,,5,28,203,12,,,,,,,,,,,,,,,right,0.151974201202,participant4,26,59.8136129567,male,trial,2017_May_25_1750,
,,0.23,"[4.5, 0]",/sounds/legit/right60.wav,,,,,,,,,5,29,204,11,,,,,,,,,,,,,,,right,0.0347249507904,participant4,26,59.8136129567,male,trial,2017_May_25_1750,
,,0.62,"[-4.5, 0]",/sounds/legit/left60.wav,,,,,,,,,5,30,205,29,,,,,,,,,,,,,,,left,0.769875049591,participant4,26,59.8136129567,male,trial,2017_May_25_1750,
,,0.23,"[0, 0]",/sounds/legit/equal.wav,,,,,,,,,5,31,206,1,,,,,,,,,,,,,,,right,0.185086965561,participant4,26,59.8136129567,male,trial,2017_May_25_1750,
,,0.23,"[-6.75, 0]",/sounds/legit/left100.wav,,,,,,,,,5,32,207,31,,,,,,,,,,,,,,,left,0.0848739147186,participant4,26,59.8136129567,male,trial,2017_May_25_1750,
,,0.62,"[-6.75, 0]",/sounds/legit/left100.wav,,,,,,,,,5,33,208,34,,,,,,,,,,,,,,,left,0.118253946304,participant4,26,59.8136129567,male,trial,2017_May_25_1750,
,,0.49,"[0, 0]",/sounds/legit/equal.wav,,,,,,,,,5,34,209,3,,,,,,,,,,,,,,,right,0.184847831726,participant4,26,59.8136129567,male,trial,2017_May_25_1750,
,,0.23,"[6.75, 0]",/sounds/legit/right100.wav,,,,,,,,,6,0,210,16,,,,,,,,,,,,,,,right,0.101516008377,participant4,26,59.8136129567,male,trial,2017_May_25_1750,
,,0.36,"[6.75, 0]",/sounds/legit/right100.wav,,,,,,,,,6,1,211,17,,,,,,,,,,,,,,,right,0.101613044739,participant4,26,59.8136129567,male,trial,2017_May_25_1750,
,,0.1,"[-2.25, 0]",/sounds/legit/left30.wav,,,,,,,,,6,2,212,20,,,,,,,,,,,,,,,left,0.118062973022,participant4,26,59.8136129567,male,trial,2017_May_25_1750,
,,0.36,"[6.75, 0]",/sounds/legit/right100.wav,,,,,,,,,6,3,213,17,,,,,,,,,,,,,,,right,0.135023832321,participant4,26,59.8136129567,male,trial,2017_May_25_1750,
,,0.36,"[-6.75, 0]",/sounds/legit/left100.wav,,,,,,,,,6,4,214,32,,,,,,,,,,,,,,,left,0.58572101593,participant4,26,59.8136129567,male,trial,2017_May_25_1750,
,,0.49,"[4.5, 0]",/sounds/legit/right60.wav,,,,,,,,,6,5,215,13,,,,,,,,,,,,,,,right,0.0515019893646,participant4,26,59.8136129567,male,trial,2017_May_25_1750,
,,0.1,"[-2.25, 0]",/sounds/legit/left30.wav,,,,,,,,,6,6,216,20,,,,,,,,,,,,,,,left,0.151725053787,participant4,26,59.8136129567,male,trial,2017_May_25_1750,
,,0.23,"[0, 0]",/sounds/legit/equal.wav,,,,,,,,,6,7,217,1,,,,,,,,,,,,,,,right,0.000411987304688,participant4,26,59.8136129567,male,trial,2017_May_25_1750,
,,0.62,"[-6.75, 0]",/sounds/legit/left100.wav,,,,,,,,,6,8,218,34,,,,,,,,,,,,,,,left,0.0677990913391,participant4,26,59.8136129567,male,trial,2017_May_25_1750,
,,0.36,"[2.25, 0]",/sounds/legit/right30.wav,,,,,,,,,6,9,219,7,,,,,,,,,,,,,,,right,0.168583869934,participant4,26,59.8136129567,male,trial,2017_May_25_1750,
,,0.36,"[-2.25, 0]",/sounds/legit/left30.wav,,,,,,,,,6,10,220,22,,,,,,,,,,,,,,,left,0.28545999527,participant4,26,59.8136129567,male,trial,2017_May_25_1750,
,,0.1,"[-4.5, 0]",/sounds/legit/left60.wav,,,,,,,,,6,11,221,25,,,,,,,,,,,,,,,left,0.0179929733276,participant4,26,59.8136129567,male,trial,2017_May_25_1750,
,,0.36,"[-2.25, 0]",/sounds/legit/left30.wav,,,,,,,,,6,12,222,22,,,,,,,,,,,,,,,left,0.118465900421,participant4,26,59.8136129567,male,trial,2017_May_25_1750,
,,0.62,"[-2.25, 0]",/sounds/legit/left30.wav,,,,,,,,,6,13,223,24,,,,,,,,,,,,,,,right,0.201938152313,participant4,26,59.8136129567,male,trial,2017_May_25_1750,
