path,name,noise,location,correspondingAudio,audiotrials.thisRepN,audiotrials.thisTrialN,audiotrials.thisN,audiotrials.thisIndex,visualTrials.thisRepN,visualTrials.thisTrialN,visualTrials.thisN,visualTrials.thisIndex,combinedTrials.thisRepN,combinedTrials.thisTrialN,combinedTrials.thisN,combinedTrials.thisIndex,WelcomeKey.keys,WelcomeKey.rt,key_resp_2.keys,key_resp_2.rt,AudioInstrAccept.keys,AudioInstrAccept.rt,LeftorRight.keys,LeftorRight.rt,VisualBlock.keys,VisualBlock.rt,VisualDecision.keys,VisualDecision.rt,CombinedAccept.keys,CombinedAccept.rt,CombComparisonResponse.keys,CombComparisonResponse.rt,participant,age,frameRate,sex,expName,date,
,,,,,,,,,,,,,,,,,space,0.806322097778,,,,,,,,,,,,,,,participant17,28,59.8701337631,M,trial,2017_May_29_1431,
,,,,,,,,,,,,,,,,,,,space,1.00401496887,,,,,,,,,,,,,participant17,28,59.8701337631,M,trial,2017_May_29_1431,
,,,,,,,,,,,,,,,,,,,,,space,2.10632300377,,,,,,,,,,,participant17,28,59.8701337631,M,trial,2017_May_29_1431,
/sounds/legit/right100.wav,right100,,,,0,0,0,5,,,,,,,,,,,,,,,right,0.335394859314,,,,,,,,,participant17,28,59.8701337631,M,trial,2017_May_29_1431,
/sounds/legit/right35.wav,right30,,,,0,1,1,3,,,,,,,,,,,,,,,left,0.185180187225,,,,,,,,,participant17,28,59.8701337631,M,trial,2017_May_29_1431,
/sounds/legit/equal.wav,equal,,,,0,2,2,6,,,,,,,,,,,,,,,left,1.75510597229,,,,,,,,,participant17,28,59.8701337631,M,trial,2017_May_29_1431,
/sounds/legit/left100.wav,left100,,,,0,3,3,0,,,,,,,,,,,,,,,left,0.2852871418,,,,,,,,,participant17,28,59.8701337631,M,trial,2017_May_29_1431,
/sounds/legit/left35.wav,left30,,,,0,4,4,2,,,,,,,,,,,,,,,left,0.168395042419,,,,,,,,,participant17,28,59.8701337631,M,trial,2017_May_29_1431,
/sounds/legit/left70.wav,left60,,,,0,5,5,1,,,,,,,,,,,,,,,left,0.185062170029,,,,,,,,,participant17,28,59.8701337631,M,trial,2017_May_29_1431,
/sounds/legit/right70.wav,right60,,,,0,6,6,4,,,,,,,,,,,,,,,right,0.118142127991,,,,,,,,,participant17,28,59.8701337631,M,trial,2017_May_29_1431,
/sounds/legit/equal.wav,equal,,,,1,0,7,6,,,,,,,,,,,,,,,left,0.185033082962,,,,,,,,,participant17,28,59.8701337631,M,trial,2017_May_29_1431,
/sounds/legit/right35.wav,right30,,,,1,1,8,3,,,,,,,,,,,,,,,left,0.0180671215057,,,,,,,,,participant17,28,59.8701337631,M,trial,2017_May_29_1431,
/sounds/legit/right100.wav,right100,,,,1,2,9,5,,,,,,,,,,,,,,,right,0.134755849838,,,,,,,,,participant17,28,59.8701337631,M,trial,2017_May_29_1431,
/sounds/legit/left100.wav,left100,,,,1,3,10,0,,,,,,,,,,,,,,,left,0.0348379611969,,,,,,,,,participant17,28,59.8701337631,M,trial,2017_May_29_1431,
/sounds/legit/left70.wav,left60,,,,1,4,11,1,,,,,,,,,,,,,,,left,0.168234109879,,,,,,,,,participant17,28,59.8701337631,M,trial,2017_May_29_1431,
/sounds/legit/left35.wav,left30,,,,1,5,12,2,,,,,,,,,,,,,,,left,0.168419837952,,,,,,,,,participant17,28,59.8701337631,M,trial,2017_May_29_1431,
/sounds/legit/right70.wav,right60,,,,1,6,13,4,,,,,,,,,,,,,,,right,0.134972810745,,,,,,,,,participant17,28,59.8701337631,M,trial,2017_May_29_1431,
/sounds/legit/equal.wav,equal,,,,2,0,14,6,,,,,,,,,,,,,,,left,0.153275966644,,,,,,,,,participant17,28,59.8701337631,M,trial,2017_May_29_1431,
/sounds/legit/left100.wav,left100,,,,2,1,15,0,,,,,,,,,,,,,,,left,0.0344288349152,,,,,,,,,participant17,28,59.8701337631,M,trial,2017_May_29_1431,
/sounds/legit/right100.wav,right100,,,,2,2,16,5,,,,,,,,,,,,,,,right,0.201571941376,,,,,,,,,participant17,28,59.8701337631,M,trial,2017_May_29_1431,
/sounds/legit/left35.wav,left30,,,,2,3,17,2,,,,,,,,,,,,,,,left,0.168272018433,,,,,,,,,participant17,28,59.8701337631,M,trial,2017_May_29_1431,
/sounds/legit/right70.wav,right60,,,,2,4,18,4,,,,,,,,,,,,,,,right,0.168208837509,,,,,,,,,participant17,28,59.8701337631,M,trial,2017_May_29_1431,
/sounds/legit/left70.wav,left60,,,,2,5,19,1,,,,,,,,,,,,,,,left,0.101255893707,,,,,,,,,participant17,28,59.8701337631,M,trial,2017_May_29_1431,
/sounds/legit/right35.wav,right30,,,,2,6,20,3,,,,,,,,,,,,,,,left,0.151698827744,,,,,,,,,participant17,28,59.8701337631,M,trial,2017_May_29_1431,
/sounds/legit/left35.wav,left30,,,,3,0,21,2,,,,,,,,,,,,,,,left,0.084743976593,,,,,,,,,participant17,28,59.8701337631,M,trial,2017_May_29_1431,
/sounds/legit/equal.wav,equal,,,,3,1,22,6,,,,,,,,,,,,,,,left,0.151712179184,,,,,,,,,participant17,28,59.8701337631,M,trial,2017_May_29_1431,
/sounds/legit/left100.wav,left100,,,,3,2,23,0,,,,,,,,,,,,,,,left,0.135016918182,,,,,,,,,participant17,28,59.8701337631,M,trial,2017_May_29_1431,
/sounds/legit/right100.wav,right100,,,,3,3,24,5,,,,,,,,,,,,,,,right,0.00139188766479,,,,,,,,,participant17,28,59.8701337631,M,trial,2017_May_29_1431,
/sounds/legit/left70.wav,left60,,,,3,4,25,1,,,,,,,,,,,,,,,left,0.151520967484,,,,,,,,,participant17,28,59.8701337631,M,trial,2017_May_29_1431,
/sounds/legit/right70.wav,right60,,,,3,5,26,4,,,,,,,,,,,,,,,right,0.118030071259,,,,,,,,,participant17,28,59.8701337631,M,trial,2017_May_29_1431,
/sounds/legit/right35.wav,right30,,,,3,6,27,3,,,,,,,,,,,,,,,left,0.00137805938721,,,,,,,,,participant17,28,59.8701337631,M,trial,2017_May_29_1431,
/sounds/legit/right100.wav,right100,,,,4,0,28,5,,,,,,,,,,,,,,,right,0.00123119354248,,,,,,,,,participant17,28,59.8701337631,M,trial,2017_May_29_1431,
/sounds/legit/right35.wav,right30,,,,4,1,29,3,,,,,,,,,,,,,,,left,0.134931087494,,,,,,,,,participant17,28,59.8701337631,M,trial,2017_May_29_1431,
/sounds/legit/left35.wav,left30,,,,4,2,30,2,,,,,,,,,,,,,,,left,0.101706027985,,,,,,,,,participant17,28,59.8701337631,M,trial,2017_May_29_1431,
/sounds/legit/left70.wav,left60,,,,4,3,31,1,,,,,,,,,,,,,,,left,0.0681910514832,,,,,,,,,participant17,28,59.8701337631,M,trial,2017_May_29_1431,
/sounds/legit/right70.wav,right60,,,,4,4,32,4,,,,,,,,,,,,,,,right,0.0682170391083,,,,,,,,,participant17,28,59.8701337631,M,trial,2017_May_29_1431,
/sounds/legit/equal.wav,equal,,,,4,5,33,6,,,,,,,,,,,,,,,left,0.40233707428,,,,,,,,,participant17,28,59.8701337631,M,trial,2017_May_29_1431,
/sounds/legit/left100.wav,left100,,,,4,6,34,0,,,,,,,,,,,,,,,left,0.118295907974,,,,,,,,,participant17,28,59.8701337631,M,trial,2017_May_29_1431,
/sounds/legit/right100.wav,right100,,,,5,0,35,5,,,,,,,,,,,,,,,right,0.15154504776,,,,,,,,,participant17,28,59.8701337631,M,trial,2017_May_29_1431,
/sounds/legit/right35.wav,right30,,,,5,1,36,3,,,,,,,,,,,,,,,left,0.753798007965,,,,,,,,,participant17,28,59.8701337631,M,trial,2017_May_29_1431,
/sounds/legit/left35.wav,left30,,,,5,2,37,2,,,,,,,,,,,,,,,left,0.00136303901672,,,,,,,,,participant17,28,59.8701337631,M,trial,2017_May_29_1431,
/sounds/legit/left70.wav,left60,,,,5,3,38,1,,,,,,,,,,,,,,,left,0.0847189426422,,,,,,,,,participant17,28,59.8701337631,M,trial,2017_May_29_1431,
/sounds/legit/right70.wav,right60,,,,5,4,39,4,,,,,,,,,,,,,,,right,0.0678749084473,,,,,,,,,participant17,28,59.8701337631,M,trial,2017_May_29_1431,
/sounds/legit/equal.wav,equal,,,,5,5,40,6,,,,,,,,,,,,,,,left,0.402089118958,,,,,,,,,participant17,28,59.8701337631,M,trial,2017_May_29_1431,
/sounds/legit/left100.wav,left100,,,,5,6,41,0,,,,,,,,,,,,,,,left,0.118175983429,,,,,,,,,participant17,28,59.8701337631,M,trial,2017_May_29_1431,
/sounds/legit/right35.wav,right30,,,,6,0,42,3,,,,,,,,,,,,,,,left,0.168385982513,,,,,,,,,participant17,28,59.8701337631,M,trial,2017_May_29_1431,
/sounds/legit/left35.wav,left30,,,,6,1,43,2,,,,,,,,,,,,,,,left,0.168474912643,,,,,,,,,participant17,28,59.8701337631,M,trial,2017_May_29_1431,
/sounds/legit/left70.wav,left60,,,,6,2,44,1,,,,,,,,,,,,,,,left,0.0851190090179,,,,,,,,,participant17,28,59.8701337631,M,trial,2017_May_29_1431,
/sounds/legit/left100.wav,left100,,,,6,3,45,0,,,,,,,,,,,,,,,left,0.203366041183,,,,,,,,,participant17,28,59.8701337631,M,trial,2017_May_29_1431,
/sounds/legit/right70.wav,right60,,,,6,4,46,4,,,,,,,,,,,,,,,right,0.0345468521118,,,,,,,,,participant17,28,59.8701337631,M,trial,2017_May_29_1431,
/sounds/legit/equal.wav,equal,,,,6,5,47,6,,,,,,,,,,,,,,,left,0.118335962296,,,,,,,,,participant17,28,59.8701337631,M,trial,2017_May_29_1431,
/sounds/legit/right100.wav,right100,,,,6,6,48,5,,,,,,,,,,,,,,,right,0.00136590003967,,,,,,,,,participant17,28,59.8701337631,M,trial,2017_May_29_1431,
/sounds/legit/right70.wav,right60,,,,7,0,49,4,,,,,,,,,,,,,,,right,0.335417985916,,,,,,,,,participant17,28,59.8701337631,M,trial,2017_May_29_1431,
/sounds/legit/left70.wav,left60,,,,7,1,50,1,,,,,,,,,,,,,,,left,0.134943008423,,,,,,,,,participant17,28,59.8701337631,M,trial,2017_May_29_1431,
/sounds/legit/right35.wav,right30,,,,7,2,51,3,,,,,,,,,,,,,,,right,0.285315036774,,,,,,,,,participant17,28,59.8701337631,M,trial,2017_May_29_1431,
/sounds/legit/equal.wav,equal,,,,7,3,52,6,,,,,,,,,,,,,,,right,0.334455013275,,,,,,,,,participant17,28,59.8701337631,M,trial,2017_May_29_1431,
/sounds/legit/left35.wav,left30,,,,7,4,53,2,,,,,,,,,,,,,,,left,2.20600605011,,,,,,,,,participant17,28,59.8701337631,M,trial,2017_May_29_1431,
/sounds/legit/left100.wav,left100,,,,7,5,54,0,,,,,,,,,,,,,,,right,2.1893260479,,,,,,,,,participant17,28,59.8701337631,M,trial,2017_May_29_1431,
/sounds/legit/right100.wav,right100,,,,7,6,55,5,,,,,,,,,,,,,,,right,0.201463937759,,,,,,,,,participant17,28,59.8701337631,M,trial,2017_May_29_1431,
/sounds/legit/left70.wav,left60,,,,8,0,56,1,,,,,,,,,,,,,,,left,0.786119937897,,,,,,,,,participant17,28,59.8701337631,M,trial,2017_May_29_1431,
/sounds/legit/left35.wav,left30,,,,8,1,57,2,,,,,,,,,,,,,,,left,0.268661022186,,,,,,,,,participant17,28,59.8701337631,M,trial,2017_May_29_1431,
/sounds/legit/right70.wav,right60,,,,8,2,58,4,,,,,,,,,,,,,,,right,0.0182039737701,,,,,,,,,participant17,28,59.8701337631,M,trial,2017_May_29_1431,
/sounds/legit/equal.wav,equal,,,,8,3,59,6,,,,,,,,,,,,,,,left,0.0681331157684,,,,,,,,,participant17,28,59.8701337631,M,trial,2017_May_29_1431,
/sounds/legit/right35.wav,right30,,,,8,4,60,3,,,,,,,,,,,,,,,left,2.07268810272,,,,,,,,,participant17,28,59.8701337631,M,trial,2017_May_29_1431,
/sounds/legit/right100.wav,right100,,,,8,5,61,5,,,,,,,,,,,,,,,right,1.08702111244,,,,,,,,,participant17,28,59.8701337631,M,trial,2017_May_29_1431,
/sounds/legit/left100.wav,left100,,,,8,6,62,0,,,,,,,,,,,,,,,left,0.151571035385,,,,,,,,,participant17,28,59.8701337631,M,trial,2017_May_29_1431,
/sounds/legit/left70.wav,left60,,,,9,0,63,1,,,,,,,,,,,,,,,left,0.251580953598,,,,,,,,,participant17,28,59.8701337631,M,trial,2017_May_29_1431,
/sounds/legit/left35.wav,left30,,,,9,1,64,2,,,,,,,,,,,,,,,left,0.118166923523,,,,,,,,,participant17,28,59.8701337631,M,trial,2017_May_29_1431,
/sounds/legit/left100.wav,left100,,,,9,2,65,0,,,,,,,,,,,,,,,left,0.118233919144,,,,,,,,,participant17,28,59.8701337631,M,trial,2017_May_29_1431,
/sounds/legit/right70.wav,right60,,,,9,3,66,4,,,,,,,,,,,,,,,right,0.118208885193,,,,,,,,,participant17,28,59.8701337631,M,trial,2017_May_29_1431,
/sounds/legit/right35.wav,right30,,,,9,4,67,3,,,,,,,,,,,,,,,left,0.184843063354,,,,,,,,,participant17,28,59.8701337631,M,trial,2017_May_29_1431,
/sounds/legit/right100.wav,right100,,,,9,5,68,5,,,,,,,,,,,,,,,right,0.13498210907,,,,,,,,,participant17,28,59.8701337631,M,trial,2017_May_29_1431,
/sounds/legit/equal.wav,equal,,,,9,6,69,6,,,,,,,,,,,,,,,left,0.151697158813,,,,,,,,,participant17,28,59.8701337631,M,trial,2017_May_29_1431,
,,,,,,,,,,,,,,,,,,,,,,,,,space,0.653331041336,,,,,,,participant17,28,59.8701337631,M,trial,2017_May_29_1431,
,,0.62,"[-6.75, 0]",/sounds/legit/left100.wav,,,,,0,0,0,34,,,,,,,,,,,,,,,left,0.852931976318,,,,,participant17,28,59.8701337631,M,trial,2017_May_29_1431,
,,0.49,"[6.75, 0]",/sounds/legit/right100.wav,,,,,0,1,1,18,,,,,,,,,,,,,,,right,0.00126481056213,,,,,participant17,28,59.8701337631,M,trial,2017_May_29_1431,
,,0.23,"[-2.25, 0]",/sounds/legit/left35.wav,,,,,0,2,2,21,,,,,,,,,,,,,,,left,0.118226051331,,,,,participant17,28,59.8701337631,M,trial,2017_May_29_1431,
,,0.62,"[6.75, 0]",/sounds/legit/right100.wav,,,,,0,3,3,19,,,,,,,,,,,,,,,left,0.00151395797729,,,,,participant17,28,59.8701337631,M,trial,2017_May_29_1431,
,,0.62,"[0, 0]",/sounds/legit/equal.wav,,,,,0,4,4,4,,,,,,,,,,,,,,,right,0.769733905792,,,,,participant17,28,59.8701337631,M,trial,2017_May_29_1431,
,,0.36,"[0, 0]",/sounds/legit/equal.wav,,,,,0,5,5,2,,,,,,,,,,,,,,,right,0.0682001113892,,,,,participant17,28,59.8701337631,M,trial,2017_May_29_1431,
,,0.23,"[4.5, 0]",/sounds/legit/right70.wav,,,,,0,6,6,11,,,,,,,,,,,,,,,right,0.135226964951,,,,,participant17,28,59.8701337631,M,trial,2017_May_29_1431,
,,0.49,"[-2.25, 0]",/sounds/legit/left35.wav,,,,,0,7,7,23,,,,,,,,,,,,,,,left,0.151552915573,,,,,participant17,28,59.8701337631,M,trial,2017_May_29_1431,
,,0.36,"[-6.75, 0]",/sounds/legit/left100.wav,,,,,0,8,8,32,,,,,,,,,,,,,,,left,0.151611089706,,,,,participant17,28,59.8701337631,M,trial,2017_May_29_1431,
,,0.49,"[4.5, 0]",/sounds/legit/right70.wav,,,,,0,9,9,13,,,,,,,,,,,,,,,right,0.101652860641,,,,,participant17,28,59.8701337631,M,trial,2017_May_29_1431,
,,0.49,"[2.25, 0]",/sounds/legit/right35.wav,,,,,0,10,10,8,,,,,,,,,,,,,,,right,0.134966135025,,,,,participant17,28,59.8701337631,M,trial,2017_May_29_1431,
,,0.23,"[6.75, 0]",/sounds/legit/right100.wav,,,,,0,11,11,16,,,,,,,,,,,,,,,right,0.0680611133575,,,,,participant17,28,59.8701337631,M,trial,2017_May_29_1431,
,,0.49,"[-6.75, 0]",/sounds/legit/left100.wav,,,,,0,12,12,33,,,,,,,,,,,,,,,left,0.185050964355,,,,,participant17,28,59.8701337631,M,trial,2017_May_29_1431,
,,0.36,"[4.5, 0]",/sounds/legit/right70.wav,,,,,0,13,13,12,,,,,,,,,,,,,,,right,0.101285934448,,,,,participant17,28,59.8701337631,M,trial,2017_May_29_1431,
,,0.49,"[0, 0]",/sounds/legit/equal.wav,,,,,0,14,14,3,,,,,,,,,,,,,,,left,1.17046785355,,,,,participant17,28,59.8701337631,M,trial,2017_May_29_1431,
,,0.1,"[2.25, 0]",/sounds/legit/right35.wav,,,,,0,15,15,5,,,,,,,,,,,,,,,right,0.117921113968,,,,,participant17,28,59.8701337631,M,trial,2017_May_29_1431,
,,0.36,"[6.75, 0]",/sounds/legit/right100.wav,,,,,0,16,16,17,,,,,,,,,,,,,,,right,0.118091106415,,,,,participant17,28,59.8701337631,M,trial,2017_May_29_1431,
,,0.23,"[-4.5, 0]",/sounds/legit/left70.wav,,,,,0,17,17,26,,,,,,,,,,,,,,,left,0.134814023972,,,,,participant17,28,59.8701337631,M,trial,2017_May_29_1431,
,,0.1,"[0, 0]",/sounds/legit/equal.wav,,,,,0,18,18,0,,,,,,,,,,,,,,,left,0.652823925018,,,,,participant17,28,59.8701337631,M,trial,2017_May_29_1431,
,,0.62,"[4.5, 0]",/sounds/legit/right70.wav,,,,,0,19,19,14,,,,,,,,,,,,,,,right,0.168476819992,,,,,participant17,28,59.8701337631,M,trial,2017_May_29_1431,
,,0.1,"[-6.75, 0]",/sounds/legit/left100.wav,,,,,0,20,20,30,,,,,,,,,,,,,,,left,0.151724815369,,,,,participant17,28,59.8701337631,M,trial,2017_May_29_1431,
,,0.1,"[4.5, 0]",/sounds/legit/right70.wav,,,,,0,21,21,10,,,,,,,,,,,,,,,right,0.101034879684,,,,,participant17,28,59.8701337631,M,trial,2017_May_29_1431,
,,0.1,"[6.75, 0]",/sounds/legit/right100.wav,,,,,0,22,22,15,,,,,,,,,,,,,,,right,0.118331193924,,,,,participant17,28,59.8701337631,M,trial,2017_May_29_1431,
,,0.36,"[2.25, 0]",/sounds/legit/right35.wav,,,,,0,23,23,7,,,,,,,,,,,,,,,right,0.134980916977,,,,,participant17,28,59.8701337631,M,trial,2017_May_29_1431,
,,0.23,"[-6.75, 0]",/sounds/legit/left100.wav,,,,,0,24,24,31,,,,,,,,,,,,,,,left,0.185317993164,,,,,participant17,28,59.8701337631,M,trial,2017_May_29_1431,
,,0.36,"[-2.25, 0]",/sounds/legit/left35.wav,,,,,0,25,25,22,,,,,,,,,,,,,,,left,0.151941776276,,,,,participant17,28,59.8701337631,M,trial,2017_May_29_1431,
,,0.1,"[-4.5, 0]",/sounds/legit/left70.wav,,,,,0,26,26,25,,,,,,,,,,,,,,,left,0.118185997009,,,,,participant17,28,59.8701337631,M,trial,2017_May_29_1431,
,,0.62,"[2.25, 0]",/sounds/legit/right35.wav,,,,,0,27,27,9,,,,,,,,,,,,,,,right,0.118240118027,,,,,participant17,28,59.8701337631,M,trial,2017_May_29_1431,
,,0.23,"[2.25, 0]",/sounds/legit/right35.wav,,,,,0,28,28,6,,,,,,,,,,,,,,,right,0.0850338935852,,,,,participant17,28,59.8701337631,M,trial,2017_May_29_1431,
,,0.49,"[-4.5, 0]",/sounds/legit/left70.wav,,,,,0,29,29,28,,,,,,,,,,,,,,,left,0.068156003952,,,,,participant17,28,59.8701337631,M,trial,2017_May_29_1431,
,,0.62,"[-2.25, 0]",/sounds/legit/left35.wav,,,,,0,30,30,24,,,,,,,,,,,,,,,left,0.168183088303,,,,,participant17,28,59.8701337631,M,trial,2017_May_29_1431,
,,0.23,"[0, 0]",/sounds/legit/equal.wav,,,,,0,31,31,1,,,,,,,,,,,,,,,right,3.45878195763,,,,,participant17,28,59.8701337631,M,trial,2017_May_29_1431,
,,0.62,"[-4.5, 0]",/sounds/legit/left70.wav,,,,,0,32,32,29,,,,,,,,,,,,,,,left,0.134851932526,,,,,participant17,28,59.8701337631,M,trial,2017_May_29_1431,
,,0.36,"[-4.5, 0]",/sounds/legit/left70.wav,,,,,0,33,33,27,,,,,,,,,,,,,,,left,0.0849039554596,,,,,participant17,28,59.8701337631,M,trial,2017_May_29_1431,
,,0.1,"[-2.25, 0]",/sounds/legit/left35.wav,,,,,0,34,34,20,,,,,,,,,,,,,,,left,0.00129795074463,,,,,participant17,28,59.8701337631,M,trial,2017_May_29_1431,
,,0.36,"[4.5, 0]",/sounds/legit/right70.wav,,,,,1,0,35,12,,,,,,,,,,,,,,,right,0.168610095978,,,,,participant17,28,59.8701337631,M,trial,2017_May_29_1431,
,,0.36,"[6.75, 0]",/sounds/legit/right100.wav,,,,,1,1,36,17,,,,,,,,,,,,,,,right,0.133987903595,,,,,participant17,28,59.8701337631,M,trial,2017_May_29_1431,
,,0.49,"[-6.75, 0]",/sounds/legit/left100.wav,,,,,1,2,37,33,,,,,,,,,,,,,,,left,0.0677118301392,,,,,participant17,28,59.8701337631,M,trial,2017_May_29_1431,
,,0.62,"[4.5, 0]",/sounds/legit/right70.wav,,,,,1,3,38,14,,,,,,,,,,,,,,,right,0.0680069923401,,,,,participant17,28,59.8701337631,M,trial,2017_May_29_1431,
,,0.49,"[-4.5, 0]",/sounds/legit/left70.wav,,,,,1,4,39,28,,,,,,,,,,,,,,,left,0.08487200737,,,,,participant17,28,59.8701337631,M,trial,2017_May_29_1431,
,,0.23,"[6.75, 0]",/sounds/legit/right100.wav,,,,,1,5,40,16,,,,,,,,,,,,,,,right,0.0180678367615,,,,,participant17,28,59.8701337631,M,trial,2017_May_29_1431,
,,0.1,"[4.5, 0]",/sounds/legit/right70.wav,,,,,1,6,41,10,,,,,,,,,,,,,,,right,0.101418972015,,,,,participant17,28,59.8701337631,M,trial,2017_May_29_1431,
,,0.49,"[-2.25, 0]",/sounds/legit/left35.wav,,,,,1,7,42,23,,,,,,,,,,,,,,,left,0.13488984108,,,,,participant17,28,59.8701337631,M,trial,2017_May_29_1431,
,,0.23,"[-2.25, 0]",/sounds/legit/left35.wav,,,,,1,8,43,21,,,,,,,,,,,,,,,left,2.27308011055,,,,,participant17,28,59.8701337631,M,trial,2017_May_29_1431,
,,0.49,"[2.25, 0]",/sounds/legit/right35.wav,,,,,1,9,44,8,,,,,,,,,,,,,,,right,0.0513210296631,,,,,participant17,28,59.8701337631,M,trial,2017_May_29_1431,
,,0.23,"[-4.5, 0]",/sounds/legit/left70.wav,,,,,1,10,45,26,,,,,,,,,,,,,,,left,0.0178790092468,,,,,participant17,28,59.8701337631,M,trial,2017_May_29_1431,
,,0.62,"[-4.5, 0]",/sounds/legit/left70.wav,,,,,1,11,46,29,,,,,,,,,,,,,,,left,3.17489695549,,,,,participant17,28,59.8701337631,M,trial,2017_May_29_1431,
,,0.23,"[4.5, 0]",/sounds/legit/right70.wav,,,,,1,12,47,11,,,,,,,,,,,,,,,right,0.0180609226227,,,,,participant17,28,59.8701337631,M,trial,2017_May_29_1431,
,,0.36,"[0, 0]",/sounds/legit/equal.wav,,,,,1,13,48,2,,,,,,,,,,,,,,,left,0.719725847244,,,,,participant17,28,59.8701337631,M,trial,2017_May_29_1431,
,,0.49,"[4.5, 0]",/sounds/legit/right70.wav,,,,,1,14,49,13,,,,,,,,,,,,,,,right,0.16838312149,,,,,participant17,28,59.8701337631,M,trial,2017_May_29_1431,
,,0.36,"[2.25, 0]",/sounds/legit/right35.wav,,,,,1,15,50,7,,,,,,,,,,,,,,,right,0.151566982269,,,,,participant17,28,59.8701337631,M,trial,2017_May_29_1431,
,,0.1,"[-4.5, 0]",/sounds/legit/left70.wav,,,,,1,16,51,25,,,,,,,,,,,,,,,left,0.0349159240723,,,,,participant17,28,59.8701337631,M,trial,2017_May_29_1431,
,,0.1,"[6.75, 0]",/sounds/legit/right100.wav,,,,,1,17,52,15,,,,,,,,,,,,,,,right,0.0850739479065,,,,,participant17,28,59.8701337631,M,trial,2017_May_29_1431,
,,0.36,"[-2.25, 0]",/sounds/legit/left35.wav,,,,,1,18,53,22,,,,,,,,,,,,,,,left,0.0682029724121,,,,,participant17,28,59.8701337631,M,trial,2017_May_29_1431,
,,0.62,"[0, 0]",/sounds/legit/equal.wav,,,,,1,19,54,4,,,,,,,,,,,,,,,right,0.20161986351,,,,,participant17,28,59.8701337631,M,trial,2017_May_29_1431,
,,0.36,"[-4.5, 0]",/sounds/legit/left70.wav,,,,,1,20,55,27,,,,,,,,,,,,,,,left,0.101581096649,,,,,participant17,28,59.8701337631,M,trial,2017_May_29_1431,
,,0.62,"[6.75, 0]",/sounds/legit/right100.wav,,,,,1,21,56,19,,,,,,,,,,,,,,,right,0.0180160999298,,,,,participant17,28,59.8701337631,M,trial,2017_May_29_1431,
,,0.49,"[6.75, 0]",/sounds/legit/right100.wav,,,,,1,22,57,18,,,,,,,,,,,,,,,right,0.118277072906,,,,,participant17,28,59.8701337631,M,trial,2017_May_29_1431,
,,0.49,"[0, 0]",/sounds/legit/equal.wav,,,,,1,23,58,3,,,,,,,,,,,,,,,left,0.368771076202,,,,,participant17,28,59.8701337631,M,trial,2017_May_29_1431,
,,0.23,"[0, 0]",/sounds/legit/equal.wav,,,,,1,24,59,1,,,,,,,,,,,,,,,right,0.018002986908,,,,,participant17,28,59.8701337631,M,trial,2017_May_29_1431,
,,0.1,"[-6.75, 0]",/sounds/legit/left100.wav,,,,,1,25,60,30,,,,,,,,,,,,,,,left,0.118139028549,,,,,participant17,28,59.8701337631,M,trial,2017_May_29_1431,
,,0.62,"[-2.25, 0]",/sounds/legit/left35.wav,,,,,1,26,61,24,,,,,,,,,,,,,,,left,0.151557207108,,,,,participant17,28,59.8701337631,M,trial,2017_May_29_1431,
,,0.23,"[-6.75, 0]",/sounds/legit/left100.wav,,,,,1,27,62,31,,,,,,,,,,,,,,,left,0.0512781143188,,,,,participant17,28,59.8701337631,M,trial,2017_May_29_1431,
,,0.1,"[2.25, 0]",/sounds/legit/right35.wav,,,,,1,28,63,5,,,,,,,,,,,,,,,right,0.118306159973,,,,,participant17,28,59.8701337631,M,trial,2017_May_29_1431,
,,0.1,"[-2.25, 0]",/sounds/legit/left35.wav,,,,,1,29,64,20,,,,,,,,,,,,,,,left,0.034775018692,,,,,participant17,28,59.8701337631,M,trial,2017_May_29_1431,
,,0.62,"[2.25, 0]",/sounds/legit/right35.wav,,,,,1,30,65,9,,,,,,,,,,,,,,,right,0.184924840927,,,,,participant17,28,59.8701337631,M,trial,2017_May_29_1431,
,,0.1,"[0, 0]",/sounds/legit/equal.wav,,,,,1,31,66,0,,,,,,,,,,,,,,,left,0.669255971909,,,,,participant17,28,59.8701337631,M,trial,2017_May_29_1431,
,,0.62,"[-6.75, 0]",/sounds/legit/left100.wav,,,,,1,32,67,34,,,,,,,,,,,,,,,left,0.101896047592,,,,,participant17,28,59.8701337631,M,trial,2017_May_29_1431,
,,0.36,"[-6.75, 0]",/sounds/legit/left100.wav,,,,,1,33,68,32,,,,,,,,,,,,,,,left,0.0345208644867,,,,,participant17,28,59.8701337631,M,trial,2017_May_29_1431,
,,0.23,"[2.25, 0]",/sounds/legit/right35.wav,,,,,1,34,69,6,,,,,,,,,,,,,,,right,0.151536941528,,,,,participant17,28,59.8701337631,M,trial,2017_May_29_1431,
,,0.23,"[2.25, 0]",/sounds/legit/right35.wav,,,,,2,0,70,6,,,,,,,,,,,,,,,right,0.0681118965149,,,,,participant17,28,59.8701337631,M,trial,2017_May_29_1431,
,,0.62,"[-2.25, 0]",/sounds/legit/left35.wav,,,,,2,1,71,24,,,,,,,,,,,,,,,left,0.168249130249,,,,,participant17,28,59.8701337631,M,trial,2017_May_29_1431,
,,0.23,"[-4.5, 0]",/sounds/legit/left70.wav,,,,,2,2,72,26,,,,,,,,,,,,,,,left,0.0681989192963,,,,,participant17,28,59.8701337631,M,trial,2017_May_29_1431,
,,0.23,"[-2.25, 0]",/sounds/legit/left35.wav,,,,,2,3,73,21,,,,,,,,,,,,,,,left,0.101680994034,,,,,participant17,28,59.8701337631,M,trial,2017_May_29_1431,
,,0.23,"[4.5, 0]",/sounds/legit/right70.wav,,,,,2,4,74,11,,,,,,,,,,,,,,,right,0.151715993881,,,,,participant17,28,59.8701337631,M,trial,2017_May_29_1431,
,,0.36,"[4.5, 0]",/sounds/legit/right70.wav,,,,,2,5,75,12,,,,,,,,,,,,,,,right,0.118380784988,,,,,participant17,28,59.8701337631,M,trial,2017_May_29_1431,
,,0.23,"[6.75, 0]",/sounds/legit/right100.wav,,,,,2,6,76,16,,,,,,,,,,,,,,,right,0.0014488697052,,,,,participant17,28,59.8701337631,M,trial,2017_May_29_1431,
,,0.62,"[4.5, 0]",/sounds/legit/right70.wav,,,,,2,7,77,14,,,,,,,,,,,,,,,right,0.118201971054,,,,,participant17,28,59.8701337631,M,trial,2017_May_29_1431,
,,0.23,"[-6.75, 0]",/sounds/legit/left100.wav,,,,,2,8,78,31,,,,,,,,,,,,,,,left,0.0848679542542,,,,,participant17,28,59.8701337631,M,trial,2017_May_29_1431,
,,0.62,"[-6.75, 0]",/sounds/legit/left100.wav,,,,,2,9,79,34,,,,,,,,,,,,,,,left,0.151668071747,,,,,participant17,28,59.8701337631,M,trial,2017_May_29_1431,
,,0.1,"[0, 0]",/sounds/legit/equal.wav,,,,,2,10,80,0,,,,,,,,,,,,,,,right,0.402256011963,,,,,participant17,28,59.8701337631,M,trial,2017_May_29_1431,
,,0.62,"[6.75, 0]",/sounds/legit/right100.wav,,,,,2,11,81,19,,,,,,,,,,,,,,,right,0.185193061829,,,,,participant17,28,59.8701337631,M,trial,2017_May_29_1431,
,,0.36,"[-6.75, 0]",/sounds/legit/left100.wav,,,,,2,12,82,32,,,,,,,,,,,,,,,left,0.101741075516,,,,,participant17,28,59.8701337631,M,trial,2017_May_29_1431,
,,0.36,"[6.75, 0]",/sounds/legit/right100.wav,,,,,2,13,83,17,,,,,,,,,,,,,,,right,0.134912014008,,,,,participant17,28,59.8701337631,M,trial,2017_May_29_1431,
,,0.49,"[6.75, 0]",/sounds/legit/right100.wav,,,,,2,14,84,18,,,,,,,,,,,,,,,right,0.0513069629669,,,,,participant17,28,59.8701337631,M,trial,2017_May_29_1431,
,,0.49,"[-6.75, 0]",/sounds/legit/left100.wav,,,,,2,15,85,33,,,,,,,,,,,,,,,left,0.185038089752,,,,,participant17,28,59.8701337631,M,trial,2017_May_29_1431,
,,0.62,"[2.25, 0]",/sounds/legit/right35.wav,,,,,2,16,86,9,,,,,,,,,,,,,,,right,0.0515029430389,,,,,participant17,28,59.8701337631,M,trial,2017_May_29_1431,
,,0.62,"[-4.5, 0]",/sounds/legit/left70.wav,,,,,2,17,87,29,,,,,,,,,,,,,,,left,0.167299985886,,,,,participant17,28,59.8701337631,M,trial,2017_May_29_1431,
,,0.1,"[-2.25, 0]",/sounds/legit/left35.wav,,,,,2,18,88,20,,,,,,,,,,,,,,,left,0.0680811405182,,,,,participant17,28,59.8701337631,M,trial,2017_May_29_1431,
,,0.36,"[-2.25, 0]",/sounds/legit/left35.wav,,,,,2,19,89,22,,,,,,,,,,,,,,,left,0.134705066681,,,,,participant17,28,59.8701337631,M,trial,2017_May_29_1431,
,,0.49,"[-2.25, 0]",/sounds/legit/left35.wav,,,,,2,20,90,23,,,,,,,,,,,,,,,left,0.0678601264954,,,,,participant17,28,59.8701337631,M,trial,2017_May_29_1431,
,,0.1,"[-4.5, 0]",/sounds/legit/left70.wav,,,,,2,21,91,25,,,,,,,,,,,,,,,left,0.0849850177765,,,,,participant17,28,59.8701337631,M,trial,2017_May_29_1431,
,,0.36,"[-4.5, 0]",/sounds/legit/left70.wav,,,,,2,22,92,27,,,,,,,,,,,,,,,left,0.0345339775085,,,,,participant17,28,59.8701337631,M,trial,2017_May_29_1431,
,,0.1,"[6.75, 0]",/sounds/legit/right100.wav,,,,,2,23,93,15,,,,,,,,,,,,,,,right,0.18509888649,,,,,participant17,28,59.8701337631,M,trial,2017_May_29_1431,
,,0.36,"[0, 0]",/sounds/legit/equal.wav,,,,,2,24,94,2,,,,,,,,,,,,,,,left,1.12077903748,,,,,participant17,28,59.8701337631,M,trial,2017_May_29_1431,
,,0.1,"[-6.75, 0]",/sounds/legit/left100.wav,,,,,2,25,95,30,,,,,,,,,,,,,,,left,0.152845859528,,,,,participant17,28,59.8701337631,M,trial,2017_May_29_1431,
,,0.23,"[0, 0]",/sounds/legit/equal.wav,,,,,2,26,96,1,,,,,,,,,,,,,,,right,0.469051837921,,,,,participant17,28,59.8701337631,M,trial,2017_May_29_1431,
,,0.49,"[4.5, 0]",/sounds/legit/right70.wav,,,,,2,27,97,13,,,,,,,,,,,,,,,right,0.201896905899,,,,,participant17,28,59.8701337631,M,trial,2017_May_29_1431,
,,0.49,"[0, 0]",/sounds/legit/equal.wav,,,,,2,28,98,3,,,,,,,,,,,,,,,left,0.135040044785,,,,,participant17,28,59.8701337631,M,trial,2017_May_29_1431,
,,0.62,"[0, 0]",/sounds/legit/equal.wav,,,,,2,29,99,4,,,,,,,,,,,,,,,left,0.0511479377747,,,,,participant17,28,59.8701337631,M,trial,2017_May_29_1431,
,,0.1,"[4.5, 0]",/sounds/legit/right70.wav,,,,,2,30,100,10,,,,,,,,,,,,,,,right,0.0512869358063,,,,,participant17,28,59.8701337631,M,trial,2017_May_29_1431,
,,0.49,"[2.25, 0]",/sounds/legit/right35.wav,,,,,2,31,101,8,,,,,,,,,,,,,,,right,0.168573856354,,,,,participant17,28,59.8701337631,M,trial,2017_May_29_1431,
,,0.49,"[-4.5, 0]",/sounds/legit/left70.wav,,,,,2,32,102,28,,,,,,,,,,,,,,,left,0.0681648254395,,,,,participant17,28,59.8701337631,M,trial,2017_May_29_1431,
,,0.1,"[2.25, 0]",/sounds/legit/right35.wav,,,,,2,33,103,5,,,,,,,,,,,,,,,right,0.0850789546967,,,,,participant17,28,59.8701337631,M,trial,2017_May_29_1431,
,,0.36,"[2.25, 0]",/sounds/legit/right35.wav,,,,,2,34,104,7,,,,,,,,,,,,,,,right,0.0848069190979,,,,,participant17,28,59.8701337631,M,trial,2017_May_29_1431,
,,0.49,"[-4.5, 0]",/sounds/legit/left70.wav,,,,,3,0,105,28,,,,,,,,,,,,,,,left,0.101625919342,,,,,participant17,28,59.8701337631,M,trial,2017_May_29_1431,
,,0.62,"[6.75, 0]",/sounds/legit/right100.wav,,,,,3,1,106,19,,,,,,,,,,,,,,,right,0.11842417717,,,,,participant17,28,59.8701337631,M,trial,2017_May_29_1431,
,,0.23,"[0, 0]",/sounds/legit/equal.wav,,,,,3,2,107,1,,,,,,,,,,,,,,,right,0.200922966003,,,,,participant17,28,59.8701337631,M,trial,2017_May_29_1431,
,,0.1,"[-4.5, 0]",/sounds/legit/left70.wav,,,,,3,3,108,25,,,,,,,,,,,,,,,left,0.118100166321,,,,,participant17,28,59.8701337631,M,trial,2017_May_29_1431,
,,0.62,"[0, 0]",/sounds/legit/equal.wav,,,,,3,4,109,4,,,,,,,,,,,,,,,right,0.00127387046814,,,,,participant17,28,59.8701337631,M,trial,2017_May_29_1431,
,,0.49,"[0, 0]",/sounds/legit/equal.wav,,,,,3,5,110,3,,,,,,,,,,,,,,,right,0.0180580615997,,,,,participant17,28,59.8701337631,M,trial,2017_May_29_1431,
,,0.23,"[-4.5, 0]",/sounds/legit/left70.wav,,,,,3,6,111,26,,,,,,,,,,,,,,,left,0.084860086441,,,,,participant17,28,59.8701337631,M,trial,2017_May_29_1431,
,,0.49,"[-6.75, 0]",/sounds/legit/left100.wav,,,,,3,7,112,33,,,,,,,,,,,,,,,left,0.101090908051,,,,,participant17,28,59.8701337631,M,trial,2017_May_29_1431,
,,0.23,"[4.5, 0]",/sounds/legit/right70.wav,,,,,3,8,113,11,,,,,,,,,,,,,,,right,0.185073137283,,,,,participant17,28,59.8701337631,M,trial,2017_May_29_1431,
,,0.49,"[6.75, 0]",/sounds/legit/right100.wav,,,,,3,9,114,18,,,,,,,,,,,,,,,right,0.151942014694,,,,,participant17,28,59.8701337631,M,trial,2017_May_29_1431,
,,0.62,"[2.25, 0]",/sounds/legit/right35.wav,,,,,3,10,115,9,,,,,,,,,,,,,,,right,0.184971809387,,,,,participant17,28,59.8701337631,M,trial,2017_May_29_1431,
,,0.36,"[-4.5, 0]",/sounds/legit/left70.wav,,,,,3,11,116,27,,,,,,,,,,,,,,,left,0.185020923615,,,,,participant17,28,59.8701337631,M,trial,2017_May_29_1431,
,,0.36,"[0, 0]",/sounds/legit/equal.wav,,,,,3,12,117,2,,,,,,,,,,,,,,,left,0.569257974625,,,,,participant17,28,59.8701337631,M,trial,2017_May_29_1431,
,,0.1,"[-2.25, 0]",/sounds/legit/left35.wav,,,,,3,13,118,20,,,,,,,,,,,,,,,left,0.00134897232056,,,,,participant17,28,59.8701337631,M,trial,2017_May_29_1431,
,,0.49,"[4.5, 0]",/sounds/legit/right70.wav,,,,,3,14,119,13,,,,,,,,,,,,,,,right,0.134853124619,,,,,participant17,28,59.8701337631,M,trial,2017_May_29_1431,
,,0.23,"[-6.75, 0]",/sounds/legit/left100.wav,,,,,3,15,120,31,,,,,,,,,,,,,,,left,0.101531028748,,,,,participant17,28,59.8701337631,M,trial,2017_May_29_1431,
,,0.1,"[4.5, 0]",/sounds/legit/right70.wav,,,,,3,16,121,10,,,,,,,,,,,,,,,right,0.0862050056458,,,,,participant17,28,59.8701337631,M,trial,2017_May_29_1431,
,,0.36,"[4.5, 0]",/sounds/legit/right70.wav,,,,,3,17,122,12,,,,,,,,,,,,,,,right,0.017914056778,,,,,participant17,28,59.8701337631,M,trial,2017_May_29_1431,
,,0.36,"[-2.25, 0]",/sounds/legit/left35.wav,,,,,3,18,123,22,,,,,,,,,,,,,,,left,0.0515558719635,,,,,participant17,28,59.8701337631,M,trial,2017_May_29_1431,
,,0.36,"[-6.75, 0]",/sounds/legit/left100.wav,,,,,3,19,124,32,,,,,,,,,,,,,,,left,0.151659011841,,,,,participant17,28,59.8701337631,M,trial,2017_May_29_1431,
,,0.62,"[-2.25, 0]",/sounds/legit/left35.wav,,,,,3,20,125,24,,,,,,,,,,,,,,,left,0.151621103287,,,,,participant17,28,59.8701337631,M,trial,2017_May_29_1431,
,,0.36,"[2.25, 0]",/sounds/legit/right35.wav,,,,,3,21,126,7,,,,,,,,,,,,,,,right,0.118266105652,,,,,participant17,28,59.8701337631,M,trial,2017_May_29_1431,
,,0.1,"[0, 0]",/sounds/legit/equal.wav,,,,,3,22,127,0,,,,,,,,,,,,,,,left,0.90327000618,,,,,participant17,28,59.8701337631,M,trial,2017_May_29_1431,
,,0.49,"[-2.25, 0]",/sounds/legit/left35.wav,,,,,3,23,128,23,,,,,,,,,,,,,,,left,0.0515909194946,,,,,participant17,28,59.8701337631,M,trial,2017_May_29_1431,
,,0.62,"[4.5, 0]",/sounds/legit/right70.wav,,,,,3,24,129,14,,,,,,,,,,,,,,,right,0.0179219245911,,,,,participant17,28,59.8701337631,M,trial,2017_May_29_1431,
,,0.1,"[-6.75, 0]",/sounds/legit/left100.wav,,,,,3,25,130,30,,,,,,,,,,,,,,,left,0.0679349899292,,,,,participant17,28,59.8701337631,M,trial,2017_May_29_1431,
,,0.62,"[-6.75, 0]",/sounds/legit/left100.wav,,,,,3,26,131,34,,,,,,,,,,,,,,,left,0.018180847168,,,,,participant17,28,59.8701337631,M,trial,2017_May_29_1431,
,,0.1,"[6.75, 0]",/sounds/legit/right100.wav,,,,,3,27,132,15,,,,,,,,,,,,,,,right,0.11822104454,,,,,participant17,28,59.8701337631,M,trial,2017_May_29_1431,
,,0.23,"[-2.25, 0]",/sounds/legit/left35.wav,,,,,3,28,133,21,,,,,,,,,,,,,,,left,0.0346438884735,,,,,participant17,28,59.8701337631,M,trial,2017_May_29_1431,
,,0.36,"[6.75, 0]",/sounds/legit/right100.wav,,,,,3,29,134,17,,,,,,,,,,,,,,,right,0.0679368972778,,,,,participant17,28,59.8701337631,M,trial,2017_May_29_1431,
,,0.23,"[2.25, 0]",/sounds/legit/right35.wav,,,,,3,30,135,6,,,,,,,,,,,,,,,right,0.084881067276,,,,,participant17,28,59.8701337631,M,trial,2017_May_29_1431,
,,0.23,"[6.75, 0]",/sounds/legit/right100.wav,,,,,3,31,136,16,,,,,,,,,,,,,,,right,0.068351984024,,,,,participant17,28,59.8701337631,M,trial,2017_May_29_1431,
,,0.1,"[2.25, 0]",/sounds/legit/right35.wav,,,,,3,32,137,5,,,,,,,,,,,,,,,right,0.0180900096893,,,,,participant17,28,59.8701337631,M,trial,2017_May_29_1431,
,,0.49,"[2.25, 0]",/sounds/legit/right35.wav,,,,,3,33,138,8,,,,,,,,,,,,,,,right,0.0514471530914,,,,,participant17,28,59.8701337631,M,trial,2017_May_29_1431,
,,0.62,"[-4.5, 0]",/sounds/legit/left70.wav,,,,,3,34,139,29,,,,,,,,,,,,,,,left,0.268221855164,,,,,participant17,28,59.8701337631,M,trial,2017_May_29_1431,
,,0.1,"[2.25, 0]",/sounds/legit/right35.wav,,,,,4,0,140,5,,,,,,,,,,,,,,,right,0.0345408916473,,,,,participant17,28,59.8701337631,M,trial,2017_May_29_1431,
,,0.1,"[-2.25, 0]",/sounds/legit/left35.wav,,,,,4,1,141,20,,,,,,,,,,,,,,,left,0.102875947952,,,,,participant17,28,59.8701337631,M,trial,2017_May_29_1431,
,,0.62,"[6.75, 0]",/sounds/legit/right100.wav,,,,,4,2,142,19,,,,,,,,,,,,,,,right,0.101428985596,,,,,participant17,28,59.8701337631,M,trial,2017_May_29_1431,
,,0.1,"[-6.75, 0]",/sounds/legit/left100.wav,,,,,4,3,143,30,,,,,,,,,,,,,,,left,0.118136882782,,,,,participant17,28,59.8701337631,M,trial,2017_May_29_1431,
,,0.62,"[-6.75, 0]",/sounds/legit/left100.wav,,,,,4,4,144,34,,,,,,,,,,,,,,,left,0.101488113403,,,,,participant17,28,59.8701337631,M,trial,2017_May_29_1431,
,,0.36,"[4.5, 0]",/sounds/legit/right70.wav,,,,,4,5,145,12,,,,,,,,,,,,,,,right,0.0682229995728,,,,,participant17,28,59.8701337631,M,trial,2017_May_29_1431,
,,0.23,"[0, 0]",/sounds/legit/equal.wav,,,,,4,6,146,1,,,,,,,,,,,,,,,right,2.03794598579,,,,,participant17,28,59.8701337631,M,trial,2017_May_29_1431,
,,0.62,"[2.25, 0]",/sounds/legit/right35.wav,,,,,4,7,147,9,,,,,,,,,,,,,,,left,0.268368959427,,,,,participant17,28,59.8701337631,M,trial,2017_May_29_1431,
,,0.49,"[6.75, 0]",/sounds/legit/right100.wav,,,,,4,8,148,18,,,,,,,,,,,,,,,right,0.151970148087,,,,,participant17,28,59.8701337631,M,trial,2017_May_29_1431,
,,0.1,"[0, 0]",/sounds/legit/equal.wav,,,,,4,9,149,0,,,,,,,,,,,,,,,right,0.418751955032,,,,,participant17,28,59.8701337631,M,trial,2017_May_29_1431,
,,0.36,"[6.75, 0]",/sounds/legit/right100.wav,,,,,4,10,150,17,,,,,,,,,,,,,,,right,0.151599884033,,,,,participant17,28,59.8701337631,M,trial,2017_May_29_1431,
,,0.23,"[-2.25, 0]",/sounds/legit/left35.wav,,,,,4,11,151,21,,,,,,,,,,,,,,,left,0.00126600265503,,,,,participant17,28,59.8701337631,M,trial,2017_May_29_1431,
,,0.62,"[-2.25, 0]",/sounds/legit/left35.wav,,,,,4,12,152,24,,,,,,,,,,,,,,,left,0.00130391120911,,,,,participant17,28,59.8701337631,M,trial,2017_May_29_1431,
,,0.23,"[-4.5, 0]",/sounds/legit/left70.wav,,,,,4,13,153,26,,,,,,,,,,,,,,,left,0.0348250865936,,,,,participant17,28,59.8701337631,M,trial,2017_May_29_1431,
,,0.49,"[-2.25, 0]",/sounds/legit/left35.wav,,,,,4,14,154,23,,,,,,,,,,,,,,,left,0.168215036392,,,,,participant17,28,59.8701337631,M,trial,2017_May_29_1431,
,,0.49,"[0, 0]",/sounds/legit/equal.wav,,,,,4,15,155,3,,,,,,,,,,,,,,,left,0.920073032379,,,,,participant17,28,59.8701337631,M,trial,2017_May_29_1431,
,,0.23,"[6.75, 0]",/sounds/legit/right100.wav,,,,,4,16,156,16,,,,,,,,,,,,,,,right,0.0845639705658,,,,,participant17,28,59.8701337631,M,trial,2017_May_29_1431,
,,0.23,"[4.5, 0]",/sounds/legit/right70.wav,,,,,4,17,157,11,,,,,,,,,,,,,,,right,0.0680370330811,,,,,participant17,28,59.8701337631,M,trial,2017_May_29_1431,
,,0.49,"[4.5, 0]",/sounds/legit/right70.wav,,,,,4,18,158,13,,,,,,,,,,,,,,,right,0.151858091354,,,,,participant17,28,59.8701337631,M,trial,2017_May_29_1431,
,,0.36,"[-2.25, 0]",/sounds/legit/left35.wav,,,,,4,19,159,22,,,,,,,,,,,,,,,left,0.117946147919,,,,,participant17,28,59.8701337631,M,trial,2017_May_29_1431,
,,0.49,"[-4.5, 0]",/sounds/legit/left70.wav,,,,,4,20,160,28,,,,,,,,,,,,,,,left,0.151918172836,,,,,participant17,28,59.8701337631,M,trial,2017_May_29_1431,
,,0.62,"[-4.5, 0]",/sounds/legit/left70.wav,,,,,4,21,161,29,,,,,,,,,,,,,,,left,0.152844190598,,,,,participant17,28,59.8701337631,M,trial,2017_May_29_1431,
,,0.62,"[0, 0]",/sounds/legit/equal.wav,,,,,4,22,162,4,,,,,,,,,,,,,,,right,0.168172836304,,,,,participant17,28,59.8701337631,M,trial,2017_May_29_1431,
,,0.49,"[-6.75, 0]",/sounds/legit/left100.wav,,,,,4,23,163,33,,,,,,,,,,,,,,,left,0.0849721431732,,,,,participant17,28,59.8701337631,M,trial,2017_May_29_1431,
,,0.23,"[-6.75, 0]",/sounds/legit/left100.wav,,,,,4,24,164,31,,,,,,,,,,,,,,,left,0.0680749416351,,,,,participant17,28,59.8701337631,M,trial,2017_May_29_1431,
,,0.23,"[2.25, 0]",/sounds/legit/right35.wav,,,,,4,25,165,6,,,,,,,,,,,,,,,right,0.134823083878,,,,,participant17,28,59.8701337631,M,trial,2017_May_29_1431,
,,0.36,"[0, 0]",/sounds/legit/equal.wav,,,,,4,26,166,2,,,,,,,,,,,,,,,left,2.99096703529,,,,,participant17,28,59.8701337631,M,trial,2017_May_29_1431,
,,0.36,"[-4.5, 0]",/sounds/legit/left70.wav,,,,,4,27,167,27,,,,,,,,,,,,,,,left,0.0848739147186,,,,,participant17,28,59.8701337631,M,trial,2017_May_29_1431,
,,0.49,"[2.25, 0]",/sounds/legit/right35.wav,,,,,4,28,168,8,,,,,,,,,,,,,,,right,0.151645898819,,,,,participant17,28,59.8701337631,M,trial,2017_May_29_1431,
,,0.1,"[-4.5, 0]",/sounds/legit/left70.wav,,,,,4,29,169,25,,,,,,,,,,,,,,,left,0.134975910187,,,,,participant17,28,59.8701337631,M,trial,2017_May_29_1431,
,,0.36,"[-6.75, 0]",/sounds/legit/left100.wav,,,,,4,30,170,32,,,,,,,,,,,,,,,left,0.118083000183,,,,,participant17,28,59.8701337631,M,trial,2017_May_29_1431,
,,0.62,"[4.5, 0]",/sounds/legit/right70.wav,,,,,4,31,171,14,,,,,,,,,,,,,,,right,0.16844201088,,,,,participant17,28,59.8701337631,M,trial,2017_May_29_1431,
,,0.36,"[2.25, 0]",/sounds/legit/right35.wav,,,,,4,32,172,7,,,,,,,,,,,,,,,right,0.0513050556183,,,,,participant17,28,59.8701337631,M,trial,2017_May_29_1431,
,,0.1,"[4.5, 0]",/sounds/legit/right70.wav,,,,,4,33,173,10,,,,,,,,,,,,,,,right,0.0512700080872,,,,,participant17,28,59.8701337631,M,trial,2017_May_29_1431,
,,0.1,"[6.75, 0]",/sounds/legit/right100.wav,,,,,4,34,174,15,,,,,,,,,,,,,,,right,0.0680201053619,,,,,participant17,28,59.8701337631,M,trial,2017_May_29_1431,
,,0.36,"[-6.75, 0]",/sounds/legit/left100.wav,,,,,5,0,175,32,,,,,,,,,,,,,,,left,0.101672887802,,,,,participant17,28,59.8701337631,M,trial,2017_May_29_1431,
,,0.1,"[2.25, 0]",/sounds/legit/right35.wav,,,,,5,1,176,5,,,,,,,,,,,,,,,right,0.00148296356201,,,,,participant17,28,59.8701337631,M,trial,2017_May_29_1431,
,,0.62,"[-4.5, 0]",/sounds/legit/left70.wav,,,,,5,2,177,29,,,,,,,,,,,,,,,left,0.00140905380249,,,,,participant17,28,59.8701337631,M,trial,2017_May_29_1431,
,,0.49,"[-6.75, 0]",/sounds/legit/left100.wav,,,,,5,3,178,33,,,,,,,,,,,,,,,left,0.13506102562,,,,,participant17,28,59.8701337631,M,trial,2017_May_29_1431,
,,0.23,"[0, 0]",/sounds/legit/equal.wav,,,,,5,4,179,1,,,,,,,,,,,,,,,left,0.135059118271,,,,,participant17,28,59.8701337631,M,trial,2017_May_29_1431,
,,0.23,"[-6.75, 0]",/sounds/legit/left100.wav,,,,,5,5,180,31,,,,,,,,,,,,,,,left,0.00138902664185,,,,,participant17,28,59.8701337631,M,trial,2017_May_29_1431,
,,0.23,"[6.75, 0]",/sounds/legit/right100.wav,,,,,5,6,181,16,,,,,,,,,,,,,,,right,0.168226003647,,,,,participant17,28,59.8701337631,M,trial,2017_May_29_1431,
,,0.62,"[-6.75, 0]",/sounds/legit/left100.wav,,,,,5,7,182,34,,,,,,,,,,,,,,,left,0.101859807968,,,,,participant17,28,59.8701337631,M,trial,2017_May_29_1431,
,,0.49,"[2.25, 0]",/sounds/legit/right35.wav,,,,,5,8,183,8,,,,,,,,,,,,,,,right,0.118379831314,,,,,participant17,28,59.8701337631,M,trial,2017_May_29_1431,
,,0.1,"[0, 0]",/sounds/legit/equal.wav,,,,,5,9,184,0,,,,,,,,,,,,,,,left,1.22065019608,,,,,participant17,28,59.8701337631,M,trial,2017_May_29_1431,
,,0.49,"[-4.5, 0]",/sounds/legit/left70.wav,,,,,5,10,185,28,,,,,,,,,,,,,,,left,0.0681381225586,,,,,participant17,28,59.8701337631,M,trial,2017_May_29_1431,
,,0.36,"[6.75, 0]",/sounds/legit/right100.wav,,,,,5,11,186,17,,,,,,,,,,,,,,,right,0.0514769554138,,,,,participant17,28,59.8701337631,M,trial,2017_May_29_1431,
,,0.36,"[4.5, 0]",/sounds/legit/right70.wav,,,,,5,12,187,12,,,,,,,,,,,,,,,right,0.0848841667175,,,,,participant17,28,59.8701337631,M,trial,2017_May_29_1431,
,,0.36,"[-4.5, 0]",/sounds/legit/left70.wav,,,,,5,13,188,27,,,,,,,,,,,,,,,left,0.118052959442,,,,,participant17,28,59.8701337631,M,trial,2017_May_29_1431,
,,0.49,"[6.75, 0]",/sounds/legit/right100.wav,,,,,5,14,189,18,,,,,,,,,,,,,,,right,0.117115974426,,,,,participant17,28,59.8701337631,M,trial,2017_May_29_1431,
,,0.23,"[-4.5, 0]",/sounds/legit/left70.wav,,,,,5,15,190,26,,,,,,,,,,,,,,,left,0.00129199028015,,,,,participant17,28,59.8701337631,M,trial,2017_May_29_1431,
,,0.62,"[-2.25, 0]",/sounds/legit/left35.wav,,,,,5,16,191,24,,,,,,,,,,,,,,,left,0.00126814842224,,,,,participant17,28,59.8701337631,M,trial,2017_May_29_1431,
,,0.23,"[2.25, 0]",/sounds/legit/right35.wav,,,,,5,17,192,6,,,,,,,,,,,,,,,right,0.118052005768,,,,,participant17,28,59.8701337631,M,trial,2017_May_29_1431,
,,0.62,"[0, 0]",/sounds/legit/equal.wav,,,,,5,18,193,4,,,,,,,,,,,,,,,right,0.151859998703,,,,,participant17,28,59.8701337631,M,trial,2017_May_29_1431,
,,0.36,"[-2.25, 0]",/sounds/legit/left35.wav,,,,,5,19,194,22,,,,,,,,,,,,,,,left,0.0672941207886,,,,,participant17,28,59.8701337631,M,trial,2017_May_29_1431,
,,0.36,"[2.25, 0]",/sounds/legit/right35.wav,,,,,5,20,195,7,,,,,,,,,,,,,,,right,0.118089199066,,,,,participant17,28,59.8701337631,M,trial,2017_May_29_1431,
,,0.1,"[4.5, 0]",/sounds/legit/right70.wav,,,,,5,21,196,10,,,,,,,,,,,,,,,right,0.0851609706879,,,,,participant17,28,59.8701337631,M,trial,2017_May_29_1431,
,,0.49,"[0, 0]",/sounds/legit/equal.wav,,,,,5,22,197,3,,,,,,,,,,,,,,,right,0.168298959732,,,,,participant17,28,59.8701337631,M,trial,2017_May_29_1431,
,,0.1,"[-2.25, 0]",/sounds/legit/left35.wav,,,,,5,23,198,20,,,,,,,,,,,,,,,left,0.0846931934357,,,,,participant17,28,59.8701337631,M,trial,2017_May_29_1431,
,,0.23,"[-2.25, 0]",/sounds/legit/left35.wav,,,,,5,24,199,21,,,,,,,,,,,,,,,left,0.15168094635,,,,,participant17,28,59.8701337631,M,trial,2017_May_29_1431,
,,0.62,"[2.25, 0]",/sounds/legit/right35.wav,,,,,5,25,200,9,,,,,,,,,,,,,,,right,0.0513520240784,,,,,participant17,28,59.8701337631,M,trial,2017_May_29_1431,
,,0.36,"[0, 0]",/sounds/legit/equal.wav,,,,,5,26,201,2,,,,,,,,,,,,,,,right,0.819799900055,,,,,participant17,28,59.8701337631,M,trial,2017_May_29_1431,
,,0.62,"[6.75, 0]",/sounds/legit/right100.wav,,,,,5,27,202,19,,,,,,,,,,,,,,,right,0.0848159790039,,,,,participant17,28,59.8701337631,M,trial,2017_May_29_1431,
,,0.23,"[4.5, 0]",/sounds/legit/right70.wav,,,,,5,28,203,11,,,,,,,,,,,,,,,right,4.74490499496,,,,,participant17,28,59.8701337631,M,trial,2017_May_29_1431,
,,0.1,"[-4.5, 0]",/sounds/legit/left70.wav,,,,,5,29,204,25,,,,,,,,,,,,,,,left,0.00137400627136,,,,,participant17,28,59.8701337631,M,trial,2017_May_29_1431,
,,0.1,"[-6.75, 0]",/sounds/legit/left100.wav,,,,,5,30,205,30,,,,,,,,,,,,,,,left,0.0345389842987,,,,,participant17,28,59.8701337631,M,trial,2017_May_29_1431,
,,0.49,"[-2.25, 0]",/sounds/legit/left35.wav,,,,,5,31,206,23,,,,,,,,,,,,,,,left,0.185123920441,,,,,participant17,28,59.8701337631,M,trial,2017_May_29_1431,
,,0.1,"[6.75, 0]",/sounds/legit/right100.wav,,,,,5,32,207,15,,,,,,,,,,,,,,,right,0.101922988892,,,,,participant17,28,59.8701337631,M,trial,2017_May_29_1431,
,,0.49,"[4.5, 0]",/sounds/legit/right70.wav,,,,,5,33,208,13,,,,,,,,,,,,,,,right,0.0857510566711,,,,,participant17,28,59.8701337631,M,trial,2017_May_29_1431,
,,0.62,"[4.5, 0]",/sounds/legit/right70.wav,,,,,5,34,209,14,,,,,,,,,,,,,,,right,0.084804058075,,,,,participant17,28,59.8701337631,M,trial,2017_May_29_1431,
,,0.62,"[0, 0]",/sounds/legit/equal.wav,,,,,6,0,210,4,,,,,,,,,,,,,,,right,0.118474006653,,,,,participant17,28,59.8701337631,M,trial,2017_May_29_1431,
,,0.36,"[-4.5, 0]",/sounds/legit/left70.wav,,,,,6,1,211,27,,,,,,,,,,,,,,,left,0.00130295753479,,,,,participant17,28,59.8701337631,M,trial,2017_May_29_1431,
,,0.62,"[2.25, 0]",/sounds/legit/right35.wav,,,,,6,2,212,9,,,,,,,,,,,,,,,right,0.0847890377045,,,,,participant17,28,59.8701337631,M,trial,2017_May_29_1431,
,,0.49,"[6.75, 0]",/sounds/legit/right100.wav,,,,,6,3,213,18,,,,,,,,,,,,,,,right,0.0848350524902,,,,,participant17,28,59.8701337631,M,trial,2017_May_29_1431,
,,0.36,"[2.25, 0]",/sounds/legit/right35.wav,,,,,6,4,214,7,,,,,,,,,,,,,,,right,0.0346620082855,,,,,participant17,28,59.8701337631,M,trial,2017_May_29_1431,
,,0.23,"[6.75, 0]",/sounds/legit/right100.wav,,,,,6,5,215,16,,,,,,,,,,,,,,,right,0.0680019855499,,,,,participant17,28,59.8701337631,M,trial,2017_May_29_1431,
,,0.49,"[-6.75, 0]",/sounds/legit/left100.wav,,,,,6,6,216,33,,,,,,,,,,,,,,,left,2.17258000374,,,,,participant17,28,59.8701337631,M,trial,2017_May_29_1431,
,,0.23,"[-2.25, 0]",/sounds/legit/left35.wav,,,,,6,7,217,21,,,,,,,,,,,,,,,left,9.02070903778,,,,,participant17,28,59.8701337631,M,trial,2017_May_29_1431,
,,0.62,"[-4.5, 0]",/sounds/legit/left70.wav,,,,,6,8,218,29,,,,,,,,,,,,,,,left,0.135145902634,,,,,participant17,28,59.8701337631,M,trial,2017_May_29_1431,
,,0.23,"[2.25, 0]",/sounds/legit/right35.wav,,,,,6,9,219,6,,,,,,,,,,,,,,,right,0.135017156601,,,,,participant17,28,59.8701337631,M,trial,2017_May_29_1431,
,,0.62,"[-6.75, 0]",/sounds/legit/left100.wav,,,,,6,10,220,34,,,,,,,,,,,,,,,left,0.0680129528046,,,,,participant17,28,59.8701337631,M,trial,2017_May_29_1431,
,,0.23,"[0, 0]",/sounds/legit/equal.wav,,,,,6,11,221,1,,,,,,,,,,,,,,,left,0.652797937393,,,,,participant17,28,59.8701337631,M,trial,2017_May_29_1431,
,,0.62,"[-2.25, 0]",/sounds/legit/left35.wav,,,,,6,12,222,24,,,,,,,,,,,,,,,left,0.118321895599,,,,,participant17,28,59.8701337631,M,trial,2017_May_29_1431,
,,0.1,"[0, 0]",/sounds/legit/equal.wav,,,,,6,13,223,0,,,,,,,,,,,,,,,left,0.084676027298,,,,,participant17,28,59.8701337631,M,trial,2017_May_29_1431,
,,0.49,"[0, 0]",/sounds/legit/equal.wav,,,,,6,14,224,3,,,,,,,,,,,,,,,right,0.0347239971161,,,,,participant17,28,59.8701337631,M,trial,2017_May_29_1431,
,,0.23,"[4.5, 0]",/sounds/legit/right70.wav,,,,,6,15,225,11,,,,,,,,,,,,,,,right,0.168589830399,,,,,participant17,28,59.8701337631,M,trial,2017_May_29_1431,
,,0.36,"[0, 0]",/sounds/legit/equal.wav,,,,,6,16,226,2,,,,,,,,,,,,,,,left,0.218435049057,,,,,participant17,28,59.8701337631,M,trial,2017_May_29_1431,
,,0.1,"[4.5, 0]",/sounds/legit/right70.wav,,,,,6,17,227,10,,,,,,,,,,,,,,,right,0.118303060532,,,,,participant17,28,59.8701337631,M,trial,2017_May_29_1431,
,,0.1,"[-6.75, 0]",/sounds/legit/left100.wav,,,,,6,18,228,30,,,,,,,,,,,,,,,left,0.151713848114,,,,,participant17,28,59.8701337631,M,trial,2017_May_29_1431,
,,0.62,"[4.5, 0]",/sounds/legit/right70.wav,,,,,6,19,229,14,,,,,,,,,,,,,,,right,0.135066986084,,,,,participant17,28,59.8701337631,M,trial,2017_May_29_1431,
,,0.62,"[6.75, 0]",/sounds/legit/right100.wav,,,,,6,20,230,19,,,,,,,,,,,,,,,right,0.151608943939,,,,,participant17,28,59.8701337631,M,trial,2017_May_29_1431,
,,0.49,"[2.25, 0]",/sounds/legit/right35.wav,,,,,6,21,231,8,,,,,,,,,,,,,,,right,0.0847630500793,,,,,participant17,28,59.8701337631,M,trial,2017_May_29_1431,
,,0.36,"[-6.75, 0]",/sounds/legit/left100.wav,,,,,6,22,232,32,,,,,,,,,,,,,,,left,0.13498210907,,,,,participant17,28,59.8701337631,M,trial,2017_May_29_1431,
,,0.49,"[-2.25, 0]",/sounds/legit/left35.wav,,,,,6,23,233,23,,,,,,,,,,,,,,,left,0.101768016815,,,,,participant17,28,59.8701337631,M,trial,2017_May_29_1431,
,,0.36,"[-2.25, 0]",/sounds/legit/left35.wav,,,,,6,24,234,22,,,,,,,,,,,,,,,left,0.0515201091766,,,,,participant17,28,59.8701337631,M,trial,2017_May_29_1431,
,,0.36,"[4.5, 0]",/sounds/legit/right70.wav,,,,,6,25,235,12,,,,,,,,,,,,,,,right,0.151747941971,,,,,participant17,28,59.8701337631,M,trial,2017_May_29_1431,
,,0.23,"[-6.75, 0]",/sounds/legit/left100.wav,,,,,6,26,236,31,,,,,,,,,,,,,,,left,0.13511800766,,,,,participant17,28,59.8701337631,M,trial,2017_May_29_1431,
,,0.1,"[-4.5, 0]",/sounds/legit/left70.wav,,,,,6,27,237,25,,,,,,,,,,,,,,,left,0.0839378833771,,,,,participant17,28,59.8701337631,M,trial,2017_May_29_1431,
,,0.1,"[-2.25, 0]",/sounds/legit/left35.wav,,,,,6,28,238,20,,,,,,,,,,,,,,,left,0.118167161942,,,,,participant17,28,59.8701337631,M,trial,2017_May_29_1431,
,,0.49,"[-4.5, 0]",/sounds/legit/left70.wav,,,,,6,29,239,28,,,,,,,,,,,,,,,left,0.0515367984772,,,,,participant17,28,59.8701337631,M,trial,2017_May_29_1431,
,,0.1,"[2.25, 0]",/sounds/legit/right35.wav,,,,,6,30,240,5,,,,,,,,,,,,,,,right,0.268470048904,,,,,participant17,28,59.8701337631,M,trial,2017_May_29_1431,
,,0.36,"[6.75, 0]",/sounds/legit/right100.wav,,,,,6,31,241,17,,,,,,,,,,,,,,,right,0.135037899017,,,,,participant17,28,59.8701337631,M,trial,2017_May_29_1431,
,,0.23,"[-4.5, 0]",/sounds/legit/left70.wav,,,,,6,32,242,26,,,,,,,,,,,,,,,left,0.101505041122,,,,,participant17,28,59.8701337631,M,trial,2017_May_29_1431,
,,0.49,"[4.5, 0]",/sounds/legit/right70.wav,,,,,6,33,243,13,,,,,,,,,,,,,,,right,0.0349338054657,,,,,participant17,28,59.8701337631,M,trial,2017_May_29_1431,
,,0.1,"[6.75, 0]",/sounds/legit/right100.wav,,,,,6,34,244,15,,,,,,,,,,,,,,,right,0.101438045502,,,,,participant17,28,59.8701337631,M,trial,2017_May_29_1431,
,,0.62,"[-2.25, 0]",/sounds/legit/left35.wav,,,,,7,0,245,24,,,,,,,,,,,,,,,left,0.0346419811249,,,,,participant17,28,59.8701337631,M,trial,2017_May_29_1431,
,,0.36,"[-4.5, 0]",/sounds/legit/left70.wav,,,,,7,1,246,27,,,,,,,,,,,,,,,left,0.0844991207123,,,,,participant17,28,59.8701337631,M,trial,2017_May_29_1431,
,,0.36,"[0, 0]",/sounds/legit/equal.wav,,,,,7,2,247,2,,,,,,,,,,,,,,,left,0.184975862503,,,,,participant17,28,59.8701337631,M,trial,2017_May_29_1431,
,,0.36,"[-2.25, 0]",/sounds/legit/left35.wav,,,,,7,3,248,22,,,,,,,,,,,,,,,left,0.118304014206,,,,,participant17,28,59.8701337631,M,trial,2017_May_29_1431,
,,0.23,"[-2.25, 0]",/sounds/legit/left35.wav,,,,,7,4,249,21,,,,,,,,,,,,,,,left,0.0179650783539,,,,,participant17,28,59.8701337631,M,trial,2017_May_29_1431,
,,0.49,"[2.25, 0]",/sounds/legit/right35.wav,,,,,7,5,250,8,,,,,,,,,,,,,,,right,0.0846772193909,,,,,participant17,28,59.8701337631,M,trial,2017_May_29_1431,
,,0.36,"[2.25, 0]",/sounds/legit/right35.wav,,,,,7,6,251,7,,,,,,,,,,,,,,,right,0.067214012146,,,,,participant17,28,59.8701337631,M,trial,2017_May_29_1431,
,,0.36,"[-6.75, 0]",/sounds/legit/left100.wav,,,,,7,7,252,32,,,,,,,,,,,,,,,left,0.068158864975,,,,,participant17,28,59.8701337631,M,trial,2017_May_29_1431,
,,0.1,"[-2.25, 0]",/sounds/legit/left35.wav,,,,,7,8,253,20,,,,,,,,,,,,,,,left,0.118035078049,,,,,participant17,28,59.8701337631,M,trial,2017_May_29_1431,
,,0.1,"[4.5, 0]",/sounds/legit/right70.wav,,,,,7,9,254,10,,,,,,,,,,,,,,,right,0.21852183342,,,,,participant17,28,59.8701337631,M,trial,2017_May_29_1431,
,,0.49,"[-2.25, 0]",/sounds/legit/left35.wav,,,,,7,10,255,23,,,,,,,,,,,,,,,left,0.0349359512329,,,,,participant17,28,59.8701337631,M,trial,2017_May_29_1431,
,,0.1,"[0, 0]",/sounds/legit/equal.wav,,,,,7,11,256,0,,,,,,,,,,,,,,,left,0.385591030121,,,,,participant17,28,59.8701337631,M,trial,2017_May_29_1431,
,,0.62,"[0, 0]",/sounds/legit/equal.wav,,,,,7,12,257,4,,,,,,,,,,,,,,,left,0.519068002701,,,,,participant17,28,59.8701337631,M,trial,2017_May_29_1431,
,,0.49,"[-4.5, 0]",/sounds/legit/left70.wav,,,,,7,13,258,28,,,,,,,,,,,,,,,left,0.0511629581451,,,,,participant17,28,59.8701337631,M,trial,2017_May_29_1431,
,,0.36,"[4.5, 0]",/sounds/legit/right70.wav,,,,,7,14,259,12,,,,,,,,,,,,,,,right,0.0848710536957,,,,,participant17,28,59.8701337631,M,trial,2017_May_29_1431,
,,0.62,"[2.25, 0]",/sounds/legit/right35.wav,,,,,7,15,260,9,,,,,,,,,,,,,,,right,0.084771156311,,,,,participant17,28,59.8701337631,M,trial,2017_May_29_1431,
,,0.62,"[6.75, 0]",/sounds/legit/right100.wav,,,,,7,16,261,19,,,,,,,,,,,,,,,right,0.385564088821,,,,,participant17,28,59.8701337631,M,trial,2017_May_29_1431,
,,0.62,"[-4.5, 0]",/sounds/legit/left70.wav,,,,,7,17,262,29,,,,,,,,,,,,,,,left,0.0849609375,,,,,participant17,28,59.8701337631,M,trial,2017_May_29_1431,
,,0.1,"[2.25, 0]",/sounds/legit/right35.wav,,,,,7,18,263,5,,,,,,,,,,,,,,,right,0.0515170097351,,,,,participant17,28,59.8701337631,M,trial,2017_May_29_1431,
,,0.49,"[4.5, 0]",/sounds/legit/right70.wav,,,,,7,19,264,13,,,,,,,,,,,,,,,right,0.0848469734192,,,,,participant17,28,59.8701337631,M,trial,2017_May_29_1431,
,,0.62,"[-6.75, 0]",/sounds/legit/left100.wav,,,,,7,20,265,34,,,,,,,,,,,,,,,left,0.134973049164,,,,,participant17,28,59.8701337631,M,trial,2017_May_29_1431,
,,0.23,"[6.75, 0]",/sounds/legit/right100.wav,,,,,7,21,266,16,,,,,,,,,,,,,,,right,0.0682330131531,,,,,participant17,28,59.8701337631,M,trial,2017_May_29_1431,
,,0.1,"[-6.75, 0]",/sounds/legit/left100.wav,,,,,7,22,267,30,,,,,,,,,,,,,,,left,0.0680649280548,,,,,participant17,28,59.8701337631,M,trial,2017_May_29_1431,
,,0.62,"[4.5, 0]",/sounds/legit/right70.wav,,,,,7,23,268,14,,,,,,,,,,,,,,,right,0.101655006409,,,,,participant17,28,59.8701337631,M,trial,2017_May_29_1431,
,,0.23,"[0, 0]",/sounds/legit/equal.wav,,,,,7,24,269,1,,,,,,,,,,,,,,,right,0.151749849319,,,,,participant17,28,59.8701337631,M,trial,2017_May_29_1431,
,,0.49,"[-6.75, 0]",/sounds/legit/left100.wav,,,,,7,25,270,33,,,,,,,,,,,,,,,left,0.168136119843,,,,,participant17,28,59.8701337631,M,trial,2017_May_29_1431,
,,0.23,"[-4.5, 0]",/sounds/legit/left70.wav,,,,,7,26,271,26,,,,,,,,,,,,,,,left,0.101603031158,,,,,participant17,28,59.8701337631,M,trial,2017_May_29_1431,
,,0.36,"[6.75, 0]",/sounds/legit/right100.wav,,,,,7,27,272,17,,,,,,,,,,,,,,,right,0.0171339511871,,,,,participant17,28,59.8701337631,M,trial,2017_May_29_1431,
,,0.23,"[-6.75, 0]",/sounds/legit/left100.wav,,,,,7,28,273,31,,,,,,,,,,,,,,,left,0.101670980453,,,,,participant17,28,59.8701337631,M,trial,2017_May_29_1431,
,,0.23,"[2.25, 0]",/sounds/legit/right35.wav,,,,,7,29,274,6,,,,,,,,,,,,,,,right,0.151649951935,,,,,participant17,28,59.8701337631,M,trial,2017_May_29_1431,
,,0.1,"[6.75, 0]",/sounds/legit/right100.wav,,,,,7,30,275,15,,,,,,,,,,,,,,,right,0.101642847061,,,,,participant17,28,59.8701337631,M,trial,2017_May_29_1431,
,,0.49,"[6.75, 0]",/sounds/legit/right100.wav,,,,,7,31,276,18,,,,,,,,,,,,,,,right,0.101468801498,,,,,participant17,28,59.8701337631,M,trial,2017_May_29_1431,
,,0.1,"[-4.5, 0]",/sounds/legit/left70.wav,,,,,7,32,277,25,,,,,,,,,,,,,,,left,0.0679838657379,,,,,participant17,28,59.8701337631,M,trial,2017_May_29_1431,
,,0.49,"[0, 0]",/sounds/legit/equal.wav,,,,,7,33,278,3,,,,,,,,,,,,,,,left,0.134916067123,,,,,participant17,28,59.8701337631,M,trial,2017_May_29_1431,
,,0.23,"[4.5, 0]",/sounds/legit/right70.wav,,,,,7,34,279,11,,,,,,,,,,,,,,,right,0.13525891304,,,,,participant17,28,59.8701337631,M,trial,2017_May_29_1431,
,,0.62,"[-2.25, 0]",/sounds/legit/left35.wav,,,,,8,0,280,24,,,,,,,,,,,,,,,left,0.135099172592,,,,,participant17,28,59.8701337631,M,trial,2017_May_29_1431,
,,0.1,"[4.5, 0]",/sounds/legit/right70.wav,,,,,8,1,281,10,,,,,,,,,,,,,,,right,0.201780796051,,,,,participant17,28,59.8701337631,M,trial,2017_May_29_1431,
,,0.36,"[6.75, 0]",/sounds/legit/right100.wav,,,,,8,2,282,17,,,,,,,,,,,,,,,right,2.38954305649,,,,,participant17,28,59.8701337631,M,trial,2017_May_29_1431,
,,0.36,"[-2.25, 0]",/sounds/legit/left35.wav,,,,,8,3,283,22,,,,,,,,,,,,,,,left,0.168591022491,,,,,participant17,28,59.8701337631,M,trial,2017_May_29_1431,
,,0.1,"[2.25, 0]",/sounds/legit/right35.wav,,,,,8,4,284,5,,,,,,,,,,,,,,,right,2.5067589283,,,,,participant17,28,59.8701337631,M,trial,2017_May_29_1431,
,,0.23,"[2.25, 0]",/sounds/legit/right35.wav,,,,,8,5,285,6,,,,,,,,,,,,,,,right,1.97235202789,,,,,participant17,28,59.8701337631,M,trial,2017_May_29_1431,
,,0.62,"[4.5, 0]",/sounds/legit/right70.wav,,,,,8,6,286,14,,,,,,,,,,,,,,,right,0.118177890778,,,,,participant17,28,59.8701337631,M,trial,2017_May_29_1431,
,,0.23,"[-6.75, 0]",/sounds/legit/left100.wav,,,,,8,7,287,31,,,,,,,,,,,,,,,left,0.0513248443604,,,,,participant17,28,59.8701337631,M,trial,2017_May_29_1431,
,,0.62,"[6.75, 0]",/sounds/legit/right100.wav,,,,,8,8,288,19,,,,,,,,,,,,,,,right,0.0513780117035,,,,,participant17,28,59.8701337631,M,trial,2017_May_29_1431,
,,0.23,"[6.75, 0]",/sounds/legit/right100.wav,,,,,8,9,289,16,,,,,,,,,,,,,,,right,0.0516700744629,,,,,participant17,28,59.8701337631,M,trial,2017_May_29_1431,
,,0.49,"[0, 0]",/sounds/legit/equal.wav,,,,,8,10,290,3,,,,,,,,,,,,,,,left,0.402094125748,,,,,participant17,28,59.8701337631,M,trial,2017_May_29_1431,
,,0.62,"[-6.75, 0]",/sounds/legit/left100.wav,,,,,8,11,291,34,,,,,,,,,,,,,,,left,0.101401805878,,,,,participant17,28,59.8701337631,M,trial,2017_May_29_1431,
,,0.36,"[2.25, 0]",/sounds/legit/right35.wav,,,,,8,12,292,7,,,,,,,,,,,,,,,right,0.134853124619,,,,,participant17,28,59.8701337631,M,trial,2017_May_29_1431,
,,0.23,"[4.5, 0]",/sounds/legit/right70.wav,,,,,8,13,293,11,,,,,,,,,,,,,,,right,0.0182590484619,,,,,participant17,28,59.8701337631,M,trial,2017_May_29_1431,
,,0.62,"[0, 0]",/sounds/legit/equal.wav,,,,,8,14,294,4,,,,,,,,,,,,,,,left,0.0514640808105,,,,,participant17,28,59.8701337631,M,trial,2017_May_29_1431,
,,0.36,"[-4.5, 0]",/sounds/legit/left70.wav,,,,,8,15,295,27,,,,,,,,,,,,,,,left,2.08913707733,,,,,participant17,28,59.8701337631,M,trial,2017_May_29_1431,
,,0.62,"[-4.5, 0]",/sounds/legit/left70.wav,,,,,8,16,296,29,,,,,,,,,,,,,,,left,0.0849449634552,,,,,participant17,28,59.8701337631,M,trial,2017_May_29_1431,
,,0.36,"[-6.75, 0]",/sounds/legit/left100.wav,,,,,8,17,297,32,,,,,,,,,,,,,,,left,0.101432085037,,,,,participant17,28,59.8701337631,M,trial,2017_May_29_1431,
,,0.1,"[6.75, 0]",/sounds/legit/right100.wav,,,,,8,18,298,15,,,,,,,,,,,,,,,right,1.77159309387,,,,,participant17,28,59.8701337631,M,trial,2017_May_29_1431,
,,0.1,"[-6.75, 0]",/sounds/legit/left100.wav,,,,,8,19,299,30,,,,,,,,,,,,,,,left,0.101841926575,,,,,participant17,28,59.8701337631,M,trial,2017_May_29_1431,
,,0.49,"[4.5, 0]",/sounds/legit/right70.wav,,,,,8,20,300,13,,,,,,,,,,,,,,,right,0.0849258899689,,,,,participant17,28,59.8701337631,M,trial,2017_May_29_1431,
,,0.1,"[-2.25, 0]",/sounds/legit/left35.wav,,,,,8,21,301,20,,,,,,,,,,,,,,,left,0.13499712944,,,,,participant17,28,59.8701337631,M,trial,2017_May_29_1431,
,,0.23,"[0, 0]",/sounds/legit/equal.wav,,,,,8,22,302,1,,,,,,,,,,,,,,,right,0.335405111313,,,,,participant17,28,59.8701337631,M,trial,2017_May_29_1431,
,,0.1,"[-4.5, 0]",/sounds/legit/left70.wav,,,,,8,23,303,25,,,,,,,,,,,,,,,left,0.118345022202,,,,,participant17,28,59.8701337631,M,trial,2017_May_29_1431,
,,0.36,"[4.5, 0]",/sounds/legit/right70.wav,,,,,8,24,304,12,,,,,,,,,,,,,,,right,0.0671861171722,,,,,participant17,28,59.8701337631,M,trial,2017_May_29_1431,
,,0.49,"[6.75, 0]",/sounds/legit/right100.wav,,,,,8,25,305,18,,,,,,,,,,,,,,,right,0.0014488697052,,,,,participant17,28,59.8701337631,M,trial,2017_May_29_1431,
,,0.49,"[-6.75, 0]",/sounds/legit/left100.wav,,,,,8,26,306,33,,,,,,,,,,,,,,,left,0.135015010834,,,,,participant17,28,59.8701337631,M,trial,2017_May_29_1431,
,,0.23,"[-2.25, 0]",/sounds/legit/left35.wav,,,,,8,27,307,21,,,,,,,,,,,,,,,left,0.101409196854,,,,,participant17,28,59.8701337631,M,trial,2017_May_29_1431,
,,0.62,"[2.25, 0]",/sounds/legit/right35.wav,,,,,8,28,308,9,,,,,,,,,,,,,,,right,0.00124311447144,,,,,participant17,28,59.8701337631,M,trial,2017_May_29_1431,
,,0.36,"[0, 0]",/sounds/legit/equal.wav,,,,,8,29,309,2,,,,,,,,,,,,,,,left,0.235216856003,,,,,participant17,28,59.8701337631,M,trial,2017_May_29_1431,
,,0.1,"[0, 0]",/sounds/legit/equal.wav,,,,,8,30,310,0,,,,,,,,,,,,,,,left,0.135033130646,,,,,participant17,28,59.8701337631,M,trial,2017_May_29_1431,
,,0.23,"[-4.5, 0]",/sounds/legit/left70.wav,,,,,8,31,311,26,,,,,,,,,,,,,,,left,0.101588010788,,,,,participant17,28,59.8701337631,M,trial,2017_May_29_1431,
,,0.49,"[-2.25, 0]",/sounds/legit/left35.wav,,,,,8,32,312,23,,,,,,,,,,,,,,,left,0.118139982224,,,,,participant17,28,59.8701337631,M,trial,2017_May_29_1431,
,,0.49,"[2.25, 0]",/sounds/legit/right35.wav,,,,,8,33,313,8,,,,,,,,,,,,,,,right,0.0681040287018,,,,,participant17,28,59.8701337631,M,trial,2017_May_29_1431,
,,0.49,"[-4.5, 0]",/sounds/legit/left70.wav,,,,,8,34,314,28,,,,,,,,,,,,,,,left,0.101775884628,,,,,participant17,28,59.8701337631,M,trial,2017_May_29_1431,
,,0.23,"[-6.75, 0]",/sounds/legit/left100.wav,,,,,9,0,315,31,,,,,,,,,,,,,,,left,0.0515949726105,,,,,participant17,28,59.8701337631,M,trial,2017_May_29_1431,
,,0.49,"[0, 0]",/sounds/legit/equal.wav,,,,,9,1,316,3,,,,,,,,,,,,,,,left,2.82381415367,,,,,participant17,28,59.8701337631,M,trial,2017_May_29_1431,
,,0.62,"[2.25, 0]",/sounds/legit/right35.wav,,,,,9,2,317,9,,,,,,,,,,,,,,,right,0.118349075317,,,,,participant17,28,59.8701337631,M,trial,2017_May_29_1431,
,,0.49,"[2.25, 0]",/sounds/legit/right35.wav,,,,,9,3,318,8,,,,,,,,,,,,,,,right,0.151660919189,,,,,participant17,28,59.8701337631,M,trial,2017_May_29_1431,
,,0.49,"[-4.5, 0]",/sounds/legit/left70.wav,,,,,9,4,319,28,,,,,,,,,,,,,,,left,0.0680799484253,,,,,participant17,28,59.8701337631,M,trial,2017_May_29_1431,
,,0.49,"[4.5, 0]",/sounds/legit/right70.wav,,,,,9,5,320,13,,,,,,,,,,,,,,,right,0.0349578857422,,,,,participant17,28,59.8701337631,M,trial,2017_May_29_1431,
,,0.23,"[2.25, 0]",/sounds/legit/right35.wav,,,,,9,6,321,6,,,,,,,,,,,,,,,right,0.13507604599,,,,,participant17,28,59.8701337631,M,trial,2017_May_29_1431,
,,0.23,"[-4.5, 0]",/sounds/legit/left70.wav,,,,,9,7,322,26,,,,,,,,,,,,,,,left,0.00134611129761,,,,,participant17,28,59.8701337631,M,trial,2017_May_29_1431,
,,0.1,"[-2.25, 0]",/sounds/legit/left35.wav,,,,,9,8,323,20,,,,,,,,,,,,,,,left,0.118344068527,,,,,participant17,28,59.8701337631,M,trial,2017_May_29_1431,
,,0.62,"[-4.5, 0]",/sounds/legit/left70.wav,,,,,9,9,324,29,,,,,,,,,,,,,,,left,0.752985954285,,,,,participant17,28,59.8701337631,M,trial,2017_May_29_1431,
,,0.23,"[0, 0]",/sounds/legit/equal.wav,,,,,9,10,325,1,,,,,,,,,,,,,,,left,7.11632609367,,,,,participant17,28,59.8701337631,M,trial,2017_May_29_1431,
,,0.62,"[-2.25, 0]",/sounds/legit/left35.wav,,,,,9,11,326,24,,,,,,,,,,,,,,,right,0.168406963348,,,,,participant17,28,59.8701337631,M,trial,2017_May_29_1431,
,,0.36,"[4.5, 0]",/sounds/legit/right70.wav,,,,,9,12,327,12,,,,,,,,,,,,,,,right,0.168133020401,,,,,participant17,28,59.8701337631,M,trial,2017_May_29_1431,
,,0.36,"[-2.25, 0]",/sounds/legit/left35.wav,,,,,9,13,328,22,,,,,,,,,,,,,,,left,0.151935100555,,,,,participant17,28,59.8701337631,M,trial,2017_May_29_1431,
,,0.36,"[-4.5, 0]",/sounds/legit/left70.wav,,,,,9,14,329,27,,,,,,,,,,,,,,,left,0.168312072754,,,,,participant17,28,59.8701337631,M,trial,2017_May_29_1431,
,,0.1,"[6.75, 0]",/sounds/legit/right100.wav,,,,,9,15,330,15,,,,,,,,,,,,,,,right,0.0846970081329,,,,,participant17,28,59.8701337631,M,trial,2017_May_29_1431,
,,0.1,"[2.25, 0]",/sounds/legit/right35.wav,,,,,9,16,331,5,,,,,,,,,,,,,,,right,0.151766061783,,,,,participant17,28,59.8701337631,M,trial,2017_May_29_1431,
,,0.49,"[-6.75, 0]",/sounds/legit/left100.wav,,,,,9,17,332,33,,,,,,,,,,,,,,,left,0.151765823364,,,,,participant17,28,59.8701337631,M,trial,2017_May_29_1431,
,,0.1,"[4.5, 0]",/sounds/legit/right70.wav,,,,,9,18,333,10,,,,,,,,,,,,,,,right,0.118468999863,,,,,participant17,28,59.8701337631,M,trial,2017_May_29_1431,
,,0.49,"[6.75, 0]",/sounds/legit/right100.wav,,,,,9,19,334,18,,,,,,,,,,,,,,,right,0.0518100261688,,,,,participant17,28,59.8701337631,M,trial,2017_May_29_1431,
,,0.49,"[-2.25, 0]",/sounds/legit/left35.wav,,,,,9,20,335,23,,,,,,,,,,,,,,,left,0.168240070343,,,,,participant17,28,59.8701337631,M,trial,2017_May_29_1431,
,,0.62,"[4.5, 0]",/sounds/legit/right70.wav,,,,,9,21,336,14,,,,,,,,,,,,,,,right,0.151700019836,,,,,participant17,28,59.8701337631,M,trial,2017_May_29_1431,
,,0.1,"[0, 0]",/sounds/legit/equal.wav,,,,,9,22,337,0,,,,,,,,,,,,,,,left,0.452517032623,,,,,participant17,28,59.8701337631,M,trial,2017_May_29_1431,
,,0.36,"[-6.75, 0]",/sounds/legit/left100.wav,,,,,9,23,338,32,,,,,,,,,,,,,,,left,0.118430137634,,,,,participant17,28,59.8701337631,M,trial,2017_May_29_1431,
,,0.1,"[-6.75, 0]",/sounds/legit/left100.wav,,,,,9,24,339,30,,,,,,,,,,,,,,,left,0.135122060776,,,,,participant17,28,59.8701337631,M,trial,2017_May_29_1431,
,,0.36,"[6.75, 0]",/sounds/legit/right100.wav,,,,,9,25,340,17,,,,,,,,,,,,,,,right,0.00149989128113,,,,,participant17,28,59.8701337631,M,trial,2017_May_29_1431,
,,0.1,"[-4.5, 0]",/sounds/legit/left70.wav,,,,,9,26,341,25,,,,,,,,,,,,,,,left,0.101336956024,,,,,participant17,28,59.8701337631,M,trial,2017_May_29_1431,
,,0.62,"[0, 0]",/sounds/legit/equal.wav,,,,,9,27,342,4,,,,,,,,,,,,,,,right,0.0850100517273,,,,,participant17,28,59.8701337631,M,trial,2017_May_29_1431,
,,0.23,"[4.5, 0]",/sounds/legit/right70.wav,,,,,9,28,343,11,,,,,,,,,,,,,,,right,0.151921033859,,,,,participant17,28,59.8701337631,M,trial,2017_May_29_1431,
,,0.23,"[6.75, 0]",/sounds/legit/right100.wav,,,,,9,29,344,16,,,,,,,,,,,,,,,right,0.118314981461,,,,,participant17,28,59.8701337631,M,trial,2017_May_29_1431,
,,0.62,"[6.75, 0]",/sounds/legit/right100.wav,,,,,9,30,345,19,,,,,,,,,,,,,,,right,0.00146293640137,,,,,participant17,28,59.8701337631,M,trial,2017_May_29_1431,
,,0.36,"[0, 0]",/sounds/legit/equal.wav,,,,,9,31,346,2,,,,,,,,,,,,,,,left,0.167376041412,,,,,participant17,28,59.8701337631,M,trial,2017_May_29_1431,
,,0.36,"[2.25, 0]",/sounds/legit/right35.wav,,,,,9,32,347,7,,,,,,,,,,,,,,,right,0.150741100311,,,,,participant17,28,59.8701337631,M,trial,2017_May_29_1431,
,,0.23,"[-2.25, 0]",/sounds/legit/left35.wav,,,,,9,33,348,21,,,,,,,,,,,,,,,left,0.134948968887,,,,,participant17,28,59.8701337631,M,trial,2017_May_29_1431,
,,0.62,"[-6.75, 0]",/sounds/legit/left100.wav,,,,,9,34,349,34,,,,,,,,,,,,,,,left,0.0180671215057,,,,,participant17,28,59.8701337631,M,trial,2017_May_29_1431,
,,,,,,,,,,,,,,,,,,,,,,,,,,,,,space,11.1923780441,,,participant17,28,59.8701337631,M,trial,2017_May_29_1431,
,,0.62,"[0, 0]",/sounds/legit/equal.wav,,,,,,,,,0,0,0,4,,,,,,,,,,,,,,,left,5.07898497581,participant17,28,59.8701337631,M,trial,2017_May_29_1431,
,,0.49,"[-4.5, 0]",/sounds/legit/left70.wav,,,,,,,,,0,1,1,28,,,,,,,,,,,,,,,left,1.27072095871,participant17,28,59.8701337631,M,trial,2017_May_29_1431,
,,0.49,"[-6.75, 0]",/sounds/legit/left100.wav,,,,,,,,,0,2,2,33,,,,,,,,,,,,,,,left,0.00129795074463,participant17,28,59.8701337631,M,trial,2017_May_29_1431,
,,0.49,"[-6.75, 0]",/sounds/legit/left100.wav,,,,,,,,,0,3,3,33,,,,,,,,,,,,,,,left,3.89309096336,participant17,28,59.8701337631,M,trial,2017_May_29_1431,
,,0.1,"[-4.5, 0]",/sounds/legit/left70.wav,,,,,,,,,0,4,4,25,,,,,,,,,,,,,,,left,1.92233300209,participant17,28,59.8701337631,M,trial,2017_May_29_1431,
,,0.1,"[-4.5, 0]",/sounds/legit/left70.wav,,,,,,,,,0,5,5,25,,,,,,,,,,,,,,,left,0.00142312049866,participant17,28,59.8701337631,M,trial,2017_May_29_1431,
,,0.62,"[-6.75, 0]",/sounds/legit/left100.wav,,,,,,,,,0,6,6,34,,,,,,,,,,,,,,,left,1.2375998497,participant17,28,59.8701337631,M,trial,2017_May_29_1431,
,,0.49,"[4.5, 0]",/sounds/legit/right70.wav,,,,,,,,,0,7,7,13,,,,,,,,,,,,,,,right,0.134979009628,participant17,28,59.8701337631,M,trial,2017_May_29_1431,
,,0.62,"[0, 0]",/sounds/legit/equal.wav,,,,,,,,,0,8,8,4,,,,,,,,,,,,,,,right,0.552495956421,participant17,28,59.8701337631,M,trial,2017_May_29_1431,
,,0.23,"[-2.25, 0]",/sounds/legit/left35.wav,,,,,,,,,0,9,9,21,,,,,,,,,,,,,,,left,0.10173201561,participant17,28,59.8701337631,M,trial,2017_May_29_1431,
,,0.62,"[6.75, 0]",/sounds/legit/right100.wav,,,,,,,,,0,10,10,19,,,,,,,,,,,,,,,right,0.185031890869,participant17,28,59.8701337631,M,trial,2017_May_29_1431,
,,0.23,"[6.75, 0]",/sounds/legit/right100.wav,,,,,,,,,0,11,11,16,,,,,,,,,,,,,,,right,0.00127816200256,participant17,28,59.8701337631,M,trial,2017_May_29_1431,
,,0.23,"[-2.25, 0]",/sounds/legit/left35.wav,,,,,,,,,0,12,12,21,,,,,,,,,,,,,,,left,0.0347771644592,participant17,28,59.8701337631,M,trial,2017_May_29_1431,
,,0.23,"[2.25, 0]",/sounds/legit/right35.wav,,,,,,,,,0,13,13,6,,,,,,,,,,,,,,,right,0.101787090302,participant17,28,59.8701337631,M,trial,2017_May_29_1431,
,,0.23,"[0, 0]",/sounds/legit/equal.wav,,,,,,,,,0,14,14,1,,,,,,,,,,,,,,,right,0.118229150772,participant17,28,59.8701337631,M,trial,2017_May_29_1431,
,,0.36,"[6.75, 0]",/sounds/legit/right100.wav,,,,,,,,,0,15,15,17,,,,,,,,,,,,,,,right,0.00132703781128,participant17,28,59.8701337631,M,trial,2017_May_29_1431,
,,0.62,"[-2.25, 0]",/sounds/legit/left35.wav,,,,,,,,,0,16,16,24,,,,,,,,,,,,,,,left,0.218585014343,participant17,28,59.8701337631,M,trial,2017_May_29_1431,
,,0.62,"[2.25, 0]",/sounds/legit/right35.wav,,,,,,,,,0,17,17,9,,,,,,,,,,,,,,,right,0.285393953323,participant17,28,59.8701337631,M,trial,2017_May_29_1431,
,,0.62,"[-4.5, 0]",/sounds/legit/left70.wav,,,,,,,,,0,18,18,29,,,,,,,,,,,,,,,left,0.187119960785,participant17,28,59.8701337631,M,trial,2017_May_29_1431,
,,0.23,"[-6.75, 0]",/sounds/legit/left100.wav,,,,,,,,,0,19,19,31,,,,,,,,,,,,,,,left,0.134071826935,participant17,28,59.8701337631,M,trial,2017_May_29_1431,
,,0.62,"[-2.25, 0]",/sounds/legit/left35.wav,,,,,,,,,0,20,20,24,,,,,,,,,,,,,,,left,0.402454137802,participant17,28,59.8701337631,M,trial,2017_May_29_1431,
,,0.62,"[-4.5, 0]",/sounds/legit/left70.wav,,,,,,,,,0,21,21,29,,,,,,,,,,,,,,,left,0.0515170097351,participant17,28,59.8701337631,M,trial,2017_May_29_1431,
,,0.23,"[-2.25, 0]",/sounds/legit/left35.wav,,,,,,,,,0,22,22,21,,,,,,,,,,,,,,,left,0.118052005768,participant17,28,59.8701337631,M,trial,2017_May_29_1431,
,,0.1,"[-4.5, 0]",/sounds/legit/left70.wav,,,,,,,,,0,23,23,25,,,,,,,,,,,,,,,left,0.151556015015,participant17,28,59.8701337631,M,trial,2017_May_29_1431,
,,0.62,"[0, 0]",/sounds/legit/equal.wav,,,,,,,,,0,24,24,4,,,,,,,,,,,,,,,left,0.368711948395,participant17,28,59.8701337631,M,trial,2017_May_29_1431,
,,0.1,"[-6.75, 0]",/sounds/legit/left100.wav,,,,,,,,,0,25,25,30,,,,,,,,,,,,,,,left,0.340599060059,participant17,28,59.8701337631,M,trial,2017_May_29_1431,
,,0.36,"[0, 0]",/sounds/legit/equal.wav,,,,,,,,,0,26,26,2,,,,,,,,,,,,,,,left,0.435635089874,participant17,28,59.8701337631,M,trial,2017_May_29_1431,
,,0.36,"[-6.75, 0]",/sounds/legit/left100.wav,,,,,,,,,0,27,27,32,,,,,,,,,,,,,,,left,0.151702880859,participant17,28,59.8701337631,M,trial,2017_May_29_1431,
,,0.23,"[-2.25, 0]",/sounds/legit/left35.wav,,,,,,,,,0,28,28,21,,,,,,,,,,,,,,,left,2.50463891029,participant17,28,59.8701337631,M,trial,2017_May_29_1431,
,,0.49,"[0, 0]",/sounds/legit/equal.wav,,,,,,,,,0,29,29,3,,,,,,,,,,,,,,,right,1.08694696426,participant17,28,59.8701337631,M,trial,2017_May_29_1431,
,,0.23,"[-6.75, 0]",/sounds/legit/left100.wav,,,,,,,,,0,30,30,31,,,,,,,,,,,,,,,left,0.201719045639,participant17,28,59.8701337631,M,trial,2017_May_29_1431,
,,0.1,"[4.5, 0]",/sounds/legit/right70.wav,,,,,,,,,0,31,31,10,,,,,,,,,,,,,,,right,0.101498842239,participant17,28,59.8701337631,M,trial,2017_May_29_1431,
,,0.49,"[4.5, 0]",/sounds/legit/right70.wav,,,,,,,,,0,32,32,13,,,,,,,,,,,,,,,right,0.218344926834,participant17,28,59.8701337631,M,trial,2017_May_29_1431,
,,0.36,"[-4.5, 0]",/sounds/legit/left70.wav,,,,,,,,,0,33,33,27,,,,,,,,,,,,,,,left,0.151684999466,participant17,28,59.8701337631,M,trial,2017_May_29_1431,
,,0.1,"[0, 0]",/sounds/legit/equal.wav,,,,,,,,,0,34,34,0,,,,,,,,,,,,,,,right,0.00138378143311,participant17,28,59.8701337631,M,trial,2017_May_29_1431,
,,0.36,"[2.25, 0]",/sounds/legit/right35.wav,,,,,,,,,1,0,35,7,,,,,,,,,,,,,,,right,0.15168595314,participant17,28,59.8701337631,M,trial,2017_May_29_1431,
,,0.23,"[6.75, 0]",/sounds/legit/right100.wav,,,,,,,,,1,1,36,16,,,,,,,,,,,,,,,right,0.118344783783,participant17,28,59.8701337631,M,trial,2017_May_29_1431,
,,0.1,"[6.75, 0]",/sounds/legit/right100.wav,,,,,,,,,1,2,37,15,,,,,,,,,,,,,,,right,0.10148191452,participant17,28,59.8701337631,M,trial,2017_May_29_1431,
,,0.62,"[6.75, 0]",/sounds/legit/right100.wav,,,,,,,,,1,3,38,19,,,,,,,,,,,,,,,right,0.084930896759,participant17,28,59.8701337631,M,trial,2017_May_29_1431,
,,0.1,"[0, 0]",/sounds/legit/equal.wav,,,,,,,,,1,4,39,0,,,,,,,,,,,,,,,right,0.101696014404,participant17,28,59.8701337631,M,trial,2017_May_29_1431,
,,0.49,"[6.75, 0]",/sounds/legit/right100.wav,,,,,,,,,1,5,40,18,,,,,,,,,,,,,,,right,0.118370056152,participant17,28,59.8701337631,M,trial,2017_May_29_1431,
,,0.62,"[-6.75, 0]",/sounds/legit/left100.wav,,,,,,,,,1,6,41,34,,,,,,,,,,,,,,,left,0.0683090686798,participant17,28,59.8701337631,M,trial,2017_May_29_1431,
,,0.23,"[0, 0]",/sounds/legit/equal.wav,,,,,,,,,1,7,42,1,,,,,,,,,,,,,,,right,1.45440411568,participant17,28,59.8701337631,M,trial,2017_May_29_1431,
,,0.1,"[-4.5, 0]",/sounds/legit/left70.wav,,,,,,,,,1,8,43,25,,,,,,,,,,,,,,,left,0.118290185928,participant17,28,59.8701337631,M,trial,2017_May_29_1431,
,,0.36,"[-6.75, 0]",/sounds/legit/left100.wav,,,,,,,,,1,9,44,32,,,,,,,,,,,,,,,left,0.151624917984,participant17,28,59.8701337631,M,trial,2017_May_29_1431,
,,0.36,"[6.75, 0]",/sounds/legit/right100.wav,,,,,,,,,1,10,45,17,,,,,,,,,,,,,,,right,0.118180990219,participant17,28,59.8701337631,M,trial,2017_May_29_1431,
,,0.1,"[4.5, 0]",/sounds/legit/right70.wav,,,,,,,,,1,11,46,10,,,,,,,,,,,,,,,right,0.134700775146,participant17,28,59.8701337631,M,trial,2017_May_29_1431,
,,0.36,"[2.25, 0]",/sounds/legit/right35.wav,,,,,,,,,1,12,47,7,,,,,,,,,,,,,,,right,0.00131416320801,participant17,28,59.8701337631,M,trial,2017_May_29_1431,
,,0.23,"[-4.5, 0]",/sounds/legit/left70.wav,,,,,,,,,1,13,48,26,,,,,,,,,,,,,,,left,0.118133068085,participant17,28,59.8701337631,M,trial,2017_May_29_1431,
,,0.36,"[-6.75, 0]",/sounds/legit/left100.wav,,,,,,,,,1,14,49,32,,,,,,,,,,,,,,,left,0.101579189301,participant17,28,59.8701337631,M,trial,2017_May_29_1431,
,,0.49,"[6.75, 0]",/sounds/legit/right100.wav,,,,,,,,,1,15,50,18,,,,,,,,,,,,,,,right,0.101463079453,participant17,28,59.8701337631,M,trial,2017_May_29_1431,
,,0.1,"[-4.5, 0]",/sounds/legit/left70.wav,,,,,,,,,1,16,51,25,,,,,,,,,,,,,,,left,0.168650865555,participant17,28,59.8701337631,M,trial,2017_May_29_1431,
,,0.49,"[-6.75, 0]",/sounds/legit/left100.wav,,,,,,,,,1,17,52,33,,,,,,,,,,,,,,,left,0.15154504776,participant17,28,59.8701337631,M,trial,2017_May_29_1431,
,,0.49,"[-4.5, 0]",/sounds/legit/left70.wav,,,,,,,,,1,18,53,28,,,,,,,,,,,,,,,left,0.151678085327,participant17,28,59.8701337631,M,trial,2017_May_29_1431,
,,0.23,"[4.5, 0]",/sounds/legit/right70.wav,,,,,,,,,1,19,54,11,,,,,,,,,,,,,,,right,0.1186439991,participant17,28,59.8701337631,M,trial,2017_May_29_1431,
,,0.23,"[-4.5, 0]",/sounds/legit/left70.wav,,,,,,,,,1,20,55,26,,,,,,,,,,,,,,,left,0.0178790092468,participant17,28,59.8701337631,M,trial,2017_May_29_1431,
,,0.49,"[0, 0]",/sounds/legit/equal.wav,,,,,,,,,1,21,56,3,,,,,,,,,,,,,,,right,0.185178995132,participant17,28,59.8701337631,M,trial,2017_May_29_1431,
,,0.36,"[4.5, 0]",/sounds/legit/right70.wav,,,,,,,,,1,22,57,12,,,,,,,,,,,,,,,right,0.00142598152161,participant17,28,59.8701337631,M,trial,2017_May_29_1431,
,,0.23,"[-2.25, 0]",/sounds/legit/left35.wav,,,,,,,,,1,23,58,21,,,,,,,,,,,,,,,left,0.0178649425507,participant17,28,59.8701337631,M,trial,2017_May_29_1431,
,,0.49,"[-4.5, 0]",/sounds/legit/left70.wav,,,,,,,,,1,24,59,28,,,,,,,,,,,,,,,left,0.134894132614,participant17,28,59.8701337631,M,trial,2017_May_29_1431,
,,0.36,"[6.75, 0]",/sounds/legit/right100.wav,,,,,,,,,1,25,60,17,,,,,,,,,,,,,,,right,0.101715087891,participant17,28,59.8701337631,M,trial,2017_May_29_1431,
,,0.62,"[-6.75, 0]",/sounds/legit/left100.wav,,,,,,,,,1,26,61,34,,,,,,,,,,,,,,,left,0.00140404701233,participant17,28,59.8701337631,M,trial,2017_May_29_1431,
,,0.49,"[4.5, 0]",/sounds/legit/right70.wav,,,,,,,,,1,27,62,13,,,,,,,,,,,,,,,right,0.101649045944,participant17,28,59.8701337631,M,trial,2017_May_29_1431,
,,0.23,"[2.25, 0]",/sounds/legit/right35.wav,,,,,,,,,1,28,63,6,,,,,,,,,,,,,,,right,0.134863853455,participant17,28,59.8701337631,M,trial,2017_May_29_1431,
,,0.62,"[-6.75, 0]",/sounds/legit/left100.wav,,,,,,,,,1,29,64,34,,,,,,,,,,,,,,,left,0.118280887604,participant17,28,59.8701337631,M,trial,2017_May_29_1431,
,,0.36,"[0, 0]",/sounds/legit/equal.wav,,,,,,,,,1,30,65,2,,,,,,,,,,,,,,,right,0.719743013382,participant17,28,59.8701337631,M,trial,2017_May_29_1431,
,,0.49,"[4.5, 0]",/sounds/legit/right70.wav,,,,,,,,,1,31,66,13,,,,,,,,,,,,,,,right,0.0014009475708,participant17,28,59.8701337631,M,trial,2017_May_29_1431,
,,0.36,"[6.75, 0]",/sounds/legit/right100.wav,,,,,,,,,1,32,67,17,,,,,,,,,,,,,,,right,0.953291893005,participant17,28,59.8701337631,M,trial,2017_May_29_1431,
,,0.23,"[4.5, 0]",/sounds/legit/right70.wav,,,,,,,,,1,33,68,11,,,,,,,,,,,,,,,right,0.068021774292,participant17,28,59.8701337631,M,trial,2017_May_29_1431,
,,0.49,"[2.25, 0]",/sounds/legit/right35.wav,,,,,,,,,1,34,69,8,,,,,,,,,,,,,,,right,0.135023832321,participant17,28,59.8701337631,M,trial,2017_May_29_1431,
,,0.36,"[-2.25, 0]",/sounds/legit/left35.wav,,,,,,,,,2,0,70,22,,,,,,,,,,,,,,,left,0.134943008423,participant17,28,59.8701337631,M,trial,2017_May_29_1431,
,,0.36,"[0, 0]",/sounds/legit/equal.wav,,,,,,,,,2,1,71,2,,,,,,,,,,,,,,,right,0.335402011871,participant17,28,59.8701337631,M,trial,2017_May_29_1431,
,,0.36,"[-6.75, 0]",/sounds/legit/left100.wav,,,,,,,,,2,2,72,32,,,,,,,,,,,,,,,left,0.151833057404,participant17,28,59.8701337631,M,trial,2017_May_29_1431,
,,0.49,"[2.25, 0]",/sounds/legit/right35.wav,,,,,,,,,2,3,73,8,,,,,,,,,,,,,,,right,0.15068602562,participant17,28,59.8701337631,M,trial,2017_May_29_1431,
,,0.1,"[-2.25, 0]",/sounds/legit/left35.wav,,,,,,,,,2,4,74,20,,,,,,,,,,,,,,,left,0.134963989258,participant17,28,59.8701337631,M,trial,2017_May_29_1431,
,,0.62,"[4.5, 0]",/sounds/legit/right70.wav,,,,,,,,,2,5,75,14,,,,,,,,,,,,,,,right,0.151568174362,participant17,28,59.8701337631,M,trial,2017_May_29_1431,
,,0.36,"[2.25, 0]",/sounds/legit/right35.wav,,,,,,,,,2,6,76,7,,,,,,,,,,,,,,,right,0.10139298439,participant17,28,59.8701337631,M,trial,2017_May_29_1431,
,,0.1,"[-6.75, 0]",/sounds/legit/left100.wav,,,,,,,,,2,7,77,30,,,,,,,,,,,,,,,left,0.0850999355316,participant17,28,59.8701337631,M,trial,2017_May_29_1431,
,,0.49,"[2.25, 0]",/sounds/legit/right35.wav,,,,,,,,,2,8,78,8,,,,,,,,,,,,,,,right,0.0679697990417,participant17,28,59.8701337631,M,trial,2017_May_29_1431,
,,0.49,"[6.75, 0]",/sounds/legit/right100.wav,,,,,,,,,2,9,79,18,,,,,,,,,,,,,,,right,0.101489067078,participant17,28,59.8701337631,M,trial,2017_May_29_1431,
,,0.49,"[-2.25, 0]",/sounds/legit/left35.wav,,,,,,,,,2,10,80,23,,,,,,,,,,,,,,,left,0.118577003479,participant17,28,59.8701337631,M,trial,2017_May_29_1431,
,,0.62,"[2.25, 0]",/sounds/legit/right35.wav,,,,,,,,,2,11,81,9,,,,,,,,,,,,,,,right,0.118430137634,participant17,28,59.8701337631,M,trial,2017_May_29_1431,
,,0.36,"[4.5, 0]",/sounds/legit/right70.wav,,,,,,,,,2,12,82,12,,,,,,,,,,,,,,,right,0.0513889789581,participant17,28,59.8701337631,M,trial,2017_May_29_1431,
,,0.23,"[0, 0]",/sounds/legit/equal.wav,,,,,,,,,2,13,83,1,,,,,,,,,,,,,,,right,0.117980003357,participant17,28,59.8701337631,M,trial,2017_May_29_1431,
,,0.49,"[-6.75, 0]",/sounds/legit/left100.wav,,,,,,,,,2,14,84,33,,,,,,,,,,,,,,,left,0.0849719047546,participant17,28,59.8701337631,M,trial,2017_May_29_1431,
,,0.1,"[6.75, 0]",/sounds/legit/right100.wav,,,,,,,,,2,15,85,15,,,,,,,,,,,,,,,right,0.151719093323,participant17,28,59.8701337631,M,trial,2017_May_29_1431,
,,0.62,"[6.75, 0]",/sounds/legit/right100.wav,,,,,,,,,2,16,86,19,,,,,,,,,,,,,,,right,0.0682590007782,participant17,28,59.8701337631,M,trial,2017_May_29_1431,
,,0.36,"[0, 0]",/sounds/legit/equal.wav,,,,,,,,,2,17,87,2,,,,,,,,,,,,,,,right,0.335512876511,participant17,28,59.8701337631,M,trial,2017_May_29_1431,
,,0.62,"[-4.5, 0]",/sounds/legit/left70.wav,,,,,,,,,2,18,88,29,,,,,,,,,,,,,,,left,0.118495941162,participant17,28,59.8701337631,M,trial,2017_May_29_1431,
,,0.1,"[-6.75, 0]",/sounds/legit/left100.wav,,,,,,,,,2,19,89,30,,,,,,,,,,,,,,,left,0.00147604942322,participant17,28,59.8701337631,M,trial,2017_May_29_1431,
,,0.36,"[-2.25, 0]",/sounds/legit/left35.wav,,,,,,,,,2,20,90,22,,,,,,,,,,,,,,,left,0.401285886765,participant17,28,59.8701337631,M,trial,2017_May_29_1431,
,,0.49,"[0, 0]",/sounds/legit/equal.wav,,,,,,,,,2,21,91,3,,,,,,,,,,,,,,,left,0.0347378253937,participant17,28,59.8701337631,M,trial,2017_May_29_1431,
,,0.49,"[-2.25, 0]",/sounds/legit/left35.wav,,,,,,,,,2,22,92,23,,,,,,,,,,,,,,,left,0.869781017303,participant17,28,59.8701337631,M,trial,2017_May_29_1431,
,,0.62,"[2.25, 0]",/sounds/legit/right35.wav,,,,,,,,,2,23,93,9,,,,,,,,,,,,,,,right,0.168431997299,participant17,28,59.8701337631,M,trial,2017_May_29_1431,
,,0.62,"[4.5, 0]",/sounds/legit/right70.wav,,,,,,,,,2,24,94,14,,,,,,,,,,,,,,,right,1.70507001877,participant17,28,59.8701337631,M,trial,2017_May_29_1431,
,,0.23,"[-6.75, 0]",/sounds/legit/left100.wav,,,,,,,,,2,25,95,31,,,,,,,,,,,,,,,left,0.352380990982,participant17,28,59.8701337631,M,trial,2017_May_29_1431,
,,0.36,"[2.25, 0]",/sounds/legit/right35.wav,,,,,,,,,2,26,96,7,,,,,,,,,,,,,,,right,0.919885158539,participant17,28,59.8701337631,M,trial,2017_May_29_1431,
,,0.23,"[2.25, 0]",/sounds/legit/right35.wav,,,,,,,,,2,27,97,6,,,,,,,,,,,,,,,right,0.0676999092102,participant17,28,59.8701337631,M,trial,2017_May_29_1431,
,,0.23,"[4.5, 0]",/sounds/legit/right70.wav,,,,,,,,,2,28,98,11,,,,,,,,,,,,,,,right,0.018091917038,participant17,28,59.8701337631,M,trial,2017_May_29_1431,
,,0.49,"[6.75, 0]",/sounds/legit/right100.wav,,,,,,,,,2,29,99,18,,,,,,,,,,,,,,,right,0.184215068817,participant17,28,59.8701337631,M,trial,2017_May_29_1431,
,,0.36,"[6.75, 0]",/sounds/legit/right100.wav,,,,,,,,,2,30,100,17,,,,,,,,,,,,,,,right,0.135062217712,participant17,28,59.8701337631,M,trial,2017_May_29_1431,
,,0.23,"[-6.75, 0]",/sounds/legit/left100.wav,,,,,,,,,2,31,101,31,,,,,,,,,,,,,,,left,0.0512540340424,participant17,28,59.8701337631,M,trial,2017_May_29_1431,
,,0.62,"[6.75, 0]",/sounds/legit/right100.wav,,,,,,,,,2,32,102,19,,,,,,,,,,,,,,,right,0.0350830554962,participant17,28,59.8701337631,M,trial,2017_May_29_1431,
,,0.23,"[6.75, 0]",/sounds/legit/right100.wav,,,,,,,,,2,33,103,16,,,,,,,,,,,,,,,right,0.00140404701233,participant17,28,59.8701337631,M,trial,2017_May_29_1431,
,,0.23,"[-4.5, 0]",/sounds/legit/left70.wav,,,,,,,,,2,34,104,26,,,,,,,,,,,,,,,left,0.00131297111511,participant17,28,59.8701337631,M,trial,2017_May_29_1431,
,,0.36,"[6.75, 0]",/sounds/legit/right100.wav,,,,,,,,,3,0,105,17,,,,,,,,,,,,,,,right,0.00121712684631,participant17,28,59.8701337631,M,trial,2017_May_29_1431,
,,0.1,"[2.25, 0]",/sounds/legit/right35.wav,,,,,,,,,3,1,106,5,,,,,,,,,,,,,,,right,0.11834692955,participant17,28,59.8701337631,M,trial,2017_May_29_1431,
,,0.62,"[4.5, 0]",/sounds/legit/right70.wav,,,,,,,,,3,2,107,14,,,,,,,,,,,,,,,right,0.151621818542,participant17,28,59.8701337631,M,trial,2017_May_29_1431,
,,0.49,"[-4.5, 0]",/sounds/legit/left70.wav,,,,,,,,,3,3,108,28,,,,,,,,,,,,,,,left,0.101647853851,participant17,28,59.8701337631,M,trial,2017_May_29_1431,
,,0.62,"[-2.25, 0]",/sounds/legit/left35.wav,,,,,,,,,3,4,109,24,,,,,,,,,,,,,,,left,0.101330041885,participant17,28,59.8701337631,M,trial,2017_May_29_1431,
,,0.23,"[-6.75, 0]",/sounds/legit/left100.wav,,,,,,,,,3,5,110,31,,,,,,,,,,,,,,,left,0.11826300621,participant17,28,59.8701337631,M,trial,2017_May_29_1431,
,,0.49,"[-2.25, 0]",/sounds/legit/left35.wav,,,,,,,,,3,6,111,23,,,,,,,,,,,,,,,right,0.00128698348999,participant17,28,59.8701337631,M,trial,2017_May_29_1431,
,,0.1,"[6.75, 0]",/sounds/legit/right100.wav,,,,,,,,,3,7,112,15,,,,,,,,,,,,,,,right,0.0680959224701,participant17,28,59.8701337631,M,trial,2017_May_29_1431,
,,0.62,"[-6.75, 0]",/sounds/legit/left100.wav,,,,,,,,,3,8,113,34,,,,,,,,,,,,,,,left,0.134937047958,participant17,28,59.8701337631,M,trial,2017_May_29_1431,
,,0.36,"[0, 0]",/sounds/legit/equal.wav,,,,,,,,,3,9,114,2,,,,,,,,,,,,,,,right,0.0347499847412,participant17,28,59.8701337631,M,trial,2017_May_29_1431,
,,0.62,"[-2.25, 0]",/sounds/legit/left35.wav,,,,,,,,,3,10,115,24,,,,,,,,,,,,,,,left,0.151976823807,participant17,28,59.8701337631,M,trial,2017_May_29_1431,
,,0.49,"[4.5, 0]",/sounds/legit/right70.wav,,,,,,,,,3,11,116,13,,,,,,,,,,,,,,,right,0.101753950119,participant17,28,59.8701337631,M,trial,2017_May_29_1431,
,,0.1,"[6.75, 0]",/sounds/legit/right100.wav,,,,,,,,,3,12,117,15,,,,,,,,,,,,,,,right,0.0179009437561,participant17,28,59.8701337631,M,trial,2017_May_29_1431,
,,0.1,"[0, 0]",/sounds/legit/equal.wav,,,,,,,,,3,13,118,0,,,,,,,,,,,,,,,right,0.168366909027,participant17,28,59.8701337631,M,trial,2017_May_29_1431,
,,0.23,"[-4.5, 0]",/sounds/legit/left70.wav,,,,,,,,,3,14,119,26,,,,,,,,,,,,,,,left,0.134863138199,participant17,28,59.8701337631,M,trial,2017_May_29_1431,
,,0.36,"[-2.25, 0]",/sounds/legit/left35.wav,,,,,,,,,3,15,120,22,,,,,,,,,,,,,,,left,0.034529209137,participant17,28,59.8701337631,M,trial,2017_May_29_1431,
,,0.49,"[-2.25, 0]",/sounds/legit/left35.wav,,,,,,,,,3,16,121,23,,,,,,,,,,,,,,,left,1.10374999046,participant17,28,59.8701337631,M,trial,2017_May_29_1431,
,,0.1,"[6.75, 0]",/sounds/legit/right100.wav,,,,,,,,,3,17,122,15,,,,,,,,,,,,,,,right,0.101498126984,participant17,28,59.8701337631,M,trial,2017_May_29_1431,
,,0.62,"[-6.75, 0]",/sounds/legit/left100.wav,,,,,,,,,3,18,123,34,,,,,,,,,,,,,,,left,0.101789951324,participant17,28,59.8701337631,M,trial,2017_May_29_1431,
,,0.1,"[4.5, 0]",/sounds/legit/right70.wav,,,,,,,,,3,19,124,10,,,,,,,,,,,,,,,right,0.101963996887,participant17,28,59.8701337631,M,trial,2017_May_29_1431,
,,0.1,"[0, 0]",/sounds/legit/equal.wav,,,,,,,,,3,20,125,0,,,,,,,,,,,,,,,right,0.0181000232697,participant17,28,59.8701337631,M,trial,2017_May_29_1431,
,,0.1,"[-6.75, 0]",/sounds/legit/left100.wav,,,,,,,,,3,21,126,30,,,,,,,,,,,,,,,left,0.118652820587,participant17,28,59.8701337631,M,trial,2017_May_29_1431,
,,0.1,"[4.5, 0]",/sounds/legit/right70.wav,,,,,,,,,3,22,127,10,,,,,,,,,,,,,,,right,0.101484060287,participant17,28,59.8701337631,M,trial,2017_May_29_1431,
,,0.62,"[4.5, 0]",/sounds/legit/right70.wav,,,,,,,,,3,23,128,14,,,,,,,,,,,,,,,right,0.0681240558624,participant17,28,59.8701337631,M,trial,2017_May_29_1431,
,,0.1,"[-6.75, 0]",/sounds/legit/left100.wav,,,,,,,,,3,24,129,30,,,,,,,,,,,,,,,left,0.0679571628571,participant17,28,59.8701337631,M,trial,2017_May_29_1431,
,,0.1,"[-2.25, 0]",/sounds/legit/left35.wav,,,,,,,,,3,25,130,20,,,,,,,,,,,,,,,left,0.00152993202209,participant17,28,59.8701337631,M,trial,2017_May_29_1431,
,,0.49,"[0, 0]",/sounds/legit/equal.wav,,,,,,,,,3,26,131,3,,,,,,,,,,,,,,,right,0.936528921127,participant17,28,59.8701337631,M,trial,2017_May_29_1431,
,,0.1,"[-6.75, 0]",/sounds/legit/left100.wav,,,,,,,,,3,27,132,30,,,,,,,,,,,,,,,left,0.118288993835,participant17,28,59.8701337631,M,trial,2017_May_29_1431,
,,0.36,"[4.5, 0]",/sounds/legit/right70.wav,,,,,,,,,3,28,133,12,,,,,,,,,,,,,,,right,0.101395130157,participant17,28,59.8701337631,M,trial,2017_May_29_1431,
,,0.1,"[-4.5, 0]",/sounds/legit/left70.wav,,,,,,,,,3,29,134,25,,,,,,,,,,,,,,,left,0.101541042328,participant17,28,59.8701337631,M,trial,2017_May_29_1431,
,,0.36,"[-2.25, 0]",/sounds/legit/left35.wav,,,,,,,,,3,30,135,22,,,,,,,,,,,,,,,left,0.101764917374,participant17,28,59.8701337631,M,trial,2017_May_29_1431,
,,0.49,"[0, 0]",/sounds/legit/equal.wav,,,,,,,,,3,31,136,3,,,,,,,,,,,,,,,right,0.084851026535,participant17,28,59.8701337631,M,trial,2017_May_29_1431,
,,0.62,"[4.5, 0]",/sounds/legit/right70.wav,,,,,,,,,3,32,137,14,,,,,,,,,,,,,,,right,0.0349159240723,participant17,28,59.8701337631,M,trial,2017_May_29_1431,
,,0.62,"[6.75, 0]",/sounds/legit/right100.wav,,,,,,,,,3,33,138,19,,,,,,,,,,,,,,,right,0.0681879520416,participant17,28,59.8701337631,M,trial,2017_May_29_1431,
,,0.1,"[-4.5, 0]",/sounds/legit/left70.wav,,,,,,,,,3,34,139,25,,,,,,,,,,,,,,,left,0.0348789691925,participant17,28,59.8701337631,M,trial,2017_May_29_1431,
,,0.62,"[6.75, 0]",/sounds/legit/right100.wav,,,,,,,,,4,0,140,19,,,,,,,,,,,,,,,right,0.134910106659,participant17,28,59.8701337631,M,trial,2017_May_29_1431,
,,0.36,"[0, 0]",/sounds/legit/equal.wav,,,,,,,,,4,1,141,2,,,,,,,,,,,,,,,right,0.151479005814,participant17,28,59.8701337631,M,trial,2017_May_29_1431,
,,0.49,"[-4.5, 0]",/sounds/legit/left70.wav,,,,,,,,,4,2,142,28,,,,,,,,,,,,,,,left,0.0850989818573,participant17,28,59.8701337631,M,trial,2017_May_29_1431,
,,0.62,"[0, 0]",/sounds/legit/equal.wav,,,,,,,,,4,3,143,4,,,,,,,,,,,,,,,right,0.519290924072,participant17,28,59.8701337631,M,trial,2017_May_29_1431,
,,0.36,"[-4.5, 0]",/sounds/legit/left70.wav,,,,,,,,,4,4,144,27,,,,,,,,,,,,,,,left,0.168679952621,participant17,28,59.8701337631,M,trial,2017_May_29_1431,
,,0.36,"[2.25, 0]",/sounds/legit/right35.wav,,,,,,,,,4,5,145,7,,,,,,,,,,,,,,,right,0.0680618286133,participant17,28,59.8701337631,M,trial,2017_May_29_1431,
,,0.36,"[-4.5, 0]",/sounds/legit/left70.wav,,,,,,,,,4,6,146,27,,,,,,,,,,,,,,,left,0.0847709178925,participant17,28,59.8701337631,M,trial,2017_May_29_1431,
,,0.23,"[6.75, 0]",/sounds/legit/right100.wav,,,,,,,,,4,7,147,16,,,,,,,,,,,,,,,right,0.168419837952,participant17,28,59.8701337631,M,trial,2017_May_29_1431,
,,0.49,"[-6.75, 0]",/sounds/legit/left100.wav,,,,,,,,,4,8,148,33,,,,,,,,,,,,,,,left,0.0513060092926,participant17,28,59.8701337631,M,trial,2017_May_29_1431,
,,0.62,"[-4.5, 0]",/sounds/legit/left70.wav,,,,,,,,,4,9,149,29,,,,,,,,,,,,,,,left,0.0515191555023,participant17,28,59.8701337631,M,trial,2017_May_29_1431,
,,0.49,"[-2.25, 0]",/sounds/legit/left35.wav,,,,,,,,,4,10,150,23,,,,,,,,,,,,,,,left,0.151688814163,participant17,28,59.8701337631,M,trial,2017_May_29_1431,
,,0.1,"[2.25, 0]",/sounds/legit/right35.wav,,,,,,,,,4,11,151,5,,,,,,,,,,,,,,,right,0.1017370224,participant17,28,59.8701337631,M,trial,2017_May_29_1431,
,,0.49,"[6.75, 0]",/sounds/legit/right100.wav,,,,,,,,,4,12,152,18,,,,,,,,,,,,,,,right,0.168473005295,participant17,28,59.8701337631,M,trial,2017_May_29_1431,
,,0.49,"[2.25, 0]",/sounds/legit/right35.wav,,,,,,,,,4,13,153,8,,,,,,,,,,,,,,,right,0.184803009033,participant17,28,59.8701337631,M,trial,2017_May_29_1431,
,,0.62,"[2.25, 0]",/sounds/legit/right35.wav,,,,,,,,,4,14,154,9,,,,,,,,,,,,,,,right,0.418884992599,participant17,28,59.8701337631,M,trial,2017_May_29_1431,
,,0.1,"[-2.25, 0]",/sounds/legit/left35.wav,,,,,,,,,4,15,155,20,,,,,,,,,,,,,,,left,0.118279933929,participant17,28,59.8701337631,M,trial,2017_May_29_1431,
,,0.23,"[-2.25, 0]",/sounds/legit/left35.wav,,,,,,,,,4,16,156,21,,,,,,,,,,,,,,,left,0.151694059372,participant17,28,59.8701337631,M,trial,2017_May_29_1431,
,,0.62,"[0, 0]",/sounds/legit/equal.wav,,,,,,,,,4,17,157,4,,,,,,,,,,,,,,,left,0.335407972336,participant17,28,59.8701337631,M,trial,2017_May_29_1431,
,,0.36,"[-4.5, 0]",/sounds/legit/left70.wav,,,,,,,,,4,18,158,27,,,,,,,,,,,,,,,left,0.118264913559,participant17,28,59.8701337631,M,trial,2017_May_29_1431,
,,0.62,"[0, 0]",/sounds/legit/equal.wav,,,,,,,,,4,19,159,4,,,,,,,,,,,,,,,left,0.0680358409882,participant17,28,59.8701337631,M,trial,2017_May_29_1431,
,,0.23,"[2.25, 0]",/sounds/legit/right35.wav,,,,,,,,,4,20,160,6,,,,,,,,,,,,,,,right,0.101722955704,participant17,28,59.8701337631,M,trial,2017_May_29_1431,
,,0.1,"[2.25, 0]",/sounds/legit/right35.wav,,,,,,,,,4,21,161,5,,,,,,,,,,,,,,,right,0.0847148895264,participant17,28,59.8701337631,M,trial,2017_May_29_1431,
,,0.49,"[4.5, 0]",/sounds/legit/right70.wav,,,,,,,,,4,22,162,13,,,,,,,,,,,,,,,right,0.051176071167,participant17,28,59.8701337631,M,trial,2017_May_29_1431,
,,0.23,"[-4.5, 0]",/sounds/legit/left70.wav,,,,,,,,,4,23,163,26,,,,,,,,,,,,,,,left,0.101562023163,participant17,28,59.8701337631,M,trial,2017_May_29_1431,
,,0.62,"[-6.75, 0]",/sounds/legit/left100.wav,,,,,,,,,4,24,164,34,,,,,,,,,,,,,,,left,0.0850710868835,participant17,28,59.8701337631,M,trial,2017_May_29_1431,
,,0.62,"[-4.5, 0]",/sounds/legit/left70.wav,,,,,,,,,4,25,165,29,,,,,,,,,,,,,,,left,0.0849890708923,participant17,28,59.8701337631,M,trial,2017_May_29_1431,
,,0.36,"[-2.25, 0]",/sounds/legit/left35.wav,,,,,,,,,4,26,166,22,,,,,,,,,,,,,,,left,0.0847978591919,participant17,28,59.8701337631,M,trial,2017_May_29_1431,
,,0.49,"[-6.75, 0]",/sounds/legit/left100.wav,,,,,,,,,4,27,167,33,,,,,,,,,,,,,,,left,0.0849039554596,participant17,28,59.8701337631,M,trial,2017_May_29_1431,
,,0.23,"[4.5, 0]",/sounds/legit/right70.wav,,,,,,,,,4,28,168,11,,,,,,,,,,,,,,,right,0.0684859752655,participant17,28,59.8701337631,M,trial,2017_May_29_1431,
,,0.49,"[2.25, 0]",/sounds/legit/right35.wav,,,,,,,,,4,29,169,8,,,,,,,,,,,,,,,right,0.0513300895691,participant17,28,59.8701337631,M,trial,2017_May_29_1431,
,,0.23,"[0, 0]",/sounds/legit/equal.wav,,,,,,,,,4,30,170,1,,,,,,,,,,,,,,,right,0.58620595932,participant17,28,59.8701337631,M,trial,2017_May_29_1431,
,,0.1,"[4.5, 0]",/sounds/legit/right70.wav,,,,,,,,,4,31,171,10,,,,,,,,,,,,,,,right,0.117203950882,participant17,28,59.8701337631,M,trial,2017_May_29_1431,
,,0.1,"[-2.25, 0]",/sounds/legit/left35.wav,,,,,,,,,4,32,172,20,,,,,,,,,,,,,,,left,0.151428937912,participant17,28,59.8701337631,M,trial,2017_May_29_1431,
,,0.23,"[2.25, 0]",/sounds/legit/right35.wav,,,,,,,,,4,33,173,6,,,,,,,,,,,,,,,right,0.268466949463,participant17,28,59.8701337631,M,trial,2017_May_29_1431,
,,0.49,"[6.75, 0]",/sounds/legit/right100.wav,,,,,,,,,4,34,174,18,,,,,,,,,,,,,,,right,0.0514261722565,participant17,28,59.8701337631,M,trial,2017_May_29_1431,
,,0.49,"[-4.5, 0]",/sounds/legit/left70.wav,,,,,,,,,5,0,175,28,,,,,,,,,,,,,,,left,0.0180039405823,participant17,28,59.8701337631,M,trial,2017_May_29_1431,
,,0.1,"[2.25, 0]",/sounds/legit/right35.wav,,,,,,,,,5,1,176,5,,,,,,,,,,,,,,,right,0.134856939316,participant17,28,59.8701337631,M,trial,2017_May_29_1431,
,,0.36,"[-6.75, 0]",/sounds/legit/left100.wav,,,,,,,,,5,2,177,32,,,,,,,,,,,,,,,left,0.0179469585419,participant17,28,59.8701337631,M,trial,2017_May_29_1431,
,,0.23,"[0, 0]",/sounds/legit/equal.wav,,,,,,,,,5,3,178,1,,,,,,,,,,,,,,,right,0.0693647861481,participant17,28,59.8701337631,M,trial,2017_May_29_1431,
,,0.49,"[6.75, 0]",/sounds/legit/right100.wav,,,,,,,,,5,4,179,18,,,,,,,,,,,,,,,right,0.101594924927,participant17,28,59.8701337631,M,trial,2017_May_29_1431,
,,0.23,"[0, 0]",/sounds/legit/equal.wav,,,,,,,,,5,5,180,1,,,,,,,,,,,,,,,right,0.0681259632111,participant17,28,59.8701337631,M,trial,2017_May_29_1431,
,,0.49,"[2.25, 0]",/sounds/legit/right35.wav,,,,,,,,,5,6,181,8,,,,,,,,,,,,,,,right,0.185261011124,participant17,28,59.8701337631,M,trial,2017_May_29_1431,
,,0.1,"[-2.25, 0]",/sounds/legit/left35.wav,,,,,,,,,5,7,182,20,,,,,,,,,,,,,,,left,0.0848519802094,participant17,28,59.8701337631,M,trial,2017_May_29_1431,
,,0.36,"[6.75, 0]",/sounds/legit/right100.wav,,,,,,,,,5,8,183,17,,,,,,,,,,,,,,,right,0.0348219871521,participant17,28,59.8701337631,M,trial,2017_May_29_1431,
,,0.1,"[-2.25, 0]",/sounds/legit/left35.wav,,,,,,,,,5,9,184,20,,,,,,,,,,,,,,,left,0.0178809165955,participant17,28,59.8701337631,M,trial,2017_May_29_1431,
,,0.62,"[2.25, 0]",/sounds/legit/right35.wav,,,,,,,,,5,10,185,9,,,,,,,,,,,,,,,right,0.0848259925842,participant17,28,59.8701337631,M,trial,2017_May_29_1431,
,,0.23,"[-2.25, 0]",/sounds/legit/left35.wav,,,,,,,,,5,11,186,21,,,,,,,,,,,,,,,left,0.0182900428772,participant17,28,59.8701337631,M,trial,2017_May_29_1431,
,,0.62,"[-4.5, 0]",/sounds/legit/left70.wav,,,,,,,,,5,12,187,29,,,,,,,,,,,,,,,left,0.0513248443604,participant17,28,59.8701337631,M,trial,2017_May_29_1431,
,,0.36,"[2.25, 0]",/sounds/legit/right35.wav,,,,,,,,,5,13,188,7,,,,,,,,,,,,,,,right,1.28716993332,participant17,28,59.8701337631,M,trial,2017_May_29_1431,
,,0.23,"[4.5, 0]",/sounds/legit/right70.wav,,,,,,,,,5,14,189,11,,,,,,,,,,,,,,,right,0.101475000381,participant17,28,59.8701337631,M,trial,2017_May_29_1431,
,,0.62,"[-6.75, 0]",/sounds/legit/left100.wav,,,,,,,,,5,15,190,34,,,,,,,,,,,,,,,left,0.0179750919342,participant17,28,59.8701337631,M,trial,2017_May_29_1431,
,,0.1,"[0, 0]",/sounds/legit/equal.wav,,,,,,,,,5,16,191,0,,,,,,,,,,,,,,,right,0.0679278373718,participant17,28,59.8701337631,M,trial,2017_May_29_1431,
,,0.62,"[2.25, 0]",/sounds/legit/right35.wav,,,,,,,,,5,17,192,9,,,,,,,,,,,,,,,right,0.168542146683,participant17,28,59.8701337631,M,trial,2017_May_29_1431,
,,0.23,"[4.5, 0]",/sounds/legit/right70.wav,,,,,,,,,5,18,193,11,,,,,,,,,,,,,,,right,0.0519180297852,participant17,28,59.8701337631,M,trial,2017_May_29_1431,
,,0.36,"[-4.5, 0]",/sounds/legit/left70.wav,,,,,,,,,5,19,194,27,,,,,,,,,,,,,,,left,0.0511758327484,participant17,28,59.8701337631,M,trial,2017_May_29_1431,
,,0.62,"[0, 0]",/sounds/legit/equal.wav,,,,,,,,,5,20,195,4,,,,,,,,,,,,,,,left,0.418876171112,participant17,28,59.8701337631,M,trial,2017_May_29_1431,
,,0.49,"[0, 0]",/sounds/legit/equal.wav,,,,,,,,,5,21,196,3,,,,,,,,,,,,,,,right,0.201683998108,participant17,28,59.8701337631,M,trial,2017_May_29_1431,
,,0.62,"[6.75, 0]",/sounds/legit/right100.wav,,,,,,,,,5,22,197,19,,,,,,,,,,,,,,,right,0.151689052582,participant17,28,59.8701337631,M,trial,2017_May_29_1431,
,,0.36,"[2.25, 0]",/sounds/legit/right35.wav,,,,,,,,,5,23,198,7,,,,,,,,,,,,,,,right,0.0846920013428,participant17,28,59.8701337631,M,trial,2017_May_29_1431,
,,0.62,"[-4.5, 0]",/sounds/legit/left70.wav,,,,,,,,,5,24,199,29,,,,,,,,,,,,,,,left,0.168406009674,participant17,28,59.8701337631,M,trial,2017_May_29_1431,
,,0.36,"[-6.75, 0]",/sounds/legit/left100.wav,,,,,,,,,5,25,200,32,,,,,,,,,,,,,,,left,0.0346250534058,participant17,28,59.8701337631,M,trial,2017_May_29_1431,
,,0.36,"[0, 0]",/sounds/legit/equal.wav,,,,,,,,,5,26,201,2,,,,,,,,,,,,,,,left,0.653812885284,participant17,28,59.8701337631,M,trial,2017_May_29_1431,
,,0.1,"[2.25, 0]",/sounds/legit/right35.wav,,,,,,,,,5,27,202,5,,,,,,,,,,,,,,,right,0.201904058456,participant17,28,59.8701337631,M,trial,2017_May_29_1431,
,,0.36,"[4.5, 0]",/sounds/legit/right70.wav,,,,,,,,,5,28,203,12,,,,,,,,,,,,,,,right,0.101231098175,participant17,28,59.8701337631,M,trial,2017_May_29_1431,
,,0.1,"[6.75, 0]",/sounds/legit/right100.wav,,,,,,,,,5,29,204,15,,,,,,,,,,,,,,,right,0.101459026337,participant17,28,59.8701337631,M,trial,2017_May_29_1431,
,,0.36,"[2.25, 0]",/sounds/legit/right35.wav,,,,,,,,,5,30,205,7,,,,,,,,,,,,,,,right,0.135535001755,participant17,28,59.8701337631,M,trial,2017_May_29_1431,
,,0.49,"[-2.25, 0]",/sounds/legit/left35.wav,,,,,,,,,5,31,206,23,,,,,,,,,,,,,,,left,0.402261018753,participant17,28,59.8701337631,M,trial,2017_May_29_1431,
,,0.49,"[-4.5, 0]",/sounds/legit/left70.wav,,,,,,,,,5,32,207,28,,,,,,,,,,,,,,,left,0.068363904953,participant17,28,59.8701337631,M,trial,2017_May_29_1431,
,,0.23,"[2.25, 0]",/sounds/legit/right35.wav,,,,,,,,,5,33,208,6,,,,,,,,,,,,,,,right,0.101451873779,participant17,28,59.8701337631,M,trial,2017_May_29_1431,
,,0.36,"[-4.5, 0]",/sounds/legit/left70.wav,,,,,,,,,5,34,209,27,,,,,,,,,,,,,,,left,0.135089159012,participant17,28,59.8701337631,M,trial,2017_May_29_1431,
,,0.36,"[-4.5, 0]",/sounds/legit/left70.wav,,,,,,,,,6,0,210,27,,,,,,,,,,,,,,,left,0.0172920227051,participant17,28,59.8701337631,M,trial,2017_May_29_1431,
,,0.1,"[-2.25, 0]",/sounds/legit/left35.wav,,,,,,,,,6,1,211,20,,,,,,,,,,,,,,,left,0.151539087296,participant17,28,59.8701337631,M,trial,2017_May_29_1431,
,,0.1,"[6.75, 0]",/sounds/legit/right100.wav,,,,,,,,,6,2,212,15,,,,,,,,,,,,,,,right,0.135030984879,participant17,28,59.8701337631,M,trial,2017_May_29_1431,
,,0.36,"[4.5, 0]",/sounds/legit/right70.wav,,,,,,,,,6,3,213,12,,,,,,,,,,,,,,,right,0.134971857071,participant17,28,59.8701337631,M,trial,2017_May_29_1431,
,,0.1,"[4.5, 0]",/sounds/legit/right70.wav,,,,,,,,,6,4,214,10,,,,,,,,,,,,,,,right,0.134996891022,participant17,28,59.8701337631,M,trial,2017_May_29_1431,
,,0.36,"[4.5, 0]",/sounds/legit/right70.wav,,,,,,,,,6,5,215,12,,,,,,,,,,,,,,,right,0.0680439472198,participant17,28,59.8701337631,M,trial,2017_May_29_1431,
,,0.36,"[-2.25, 0]",/sounds/legit/left35.wav,,,,,,,,,6,6,216,22,,,,,,,,,,,,,,,left,0.151402950287,participant17,28,59.8701337631,M,trial,2017_May_29_1431,
,,0.23,"[2.25, 0]",/sounds/legit/right35.wav,,,,,,,,,6,7,217,6,,,,,,,,,,,,,,,right,0.519269943237,participant17,28,59.8701337631,M,trial,2017_May_29_1431,
,,0.62,"[6.75, 0]",/sounds/legit/right100.wav,,,,,,,,,6,8,218,19,,,,,,,,,,,,,,,right,0.218705177307,participant17,28,59.8701337631,M,trial,2017_May_29_1431,
,,0.23,"[6.75, 0]",/sounds/legit/right100.wav,,,,,,,,,6,9,219,16,,,,,,,,,,,,,,,right,0.268661022186,participant17,28,59.8701337631,M,trial,2017_May_29_1431,
,,0.1,"[2.25, 0]",/sounds/legit/right35.wav,,,,,,,,,6,10,220,5,,,,,,,,,,,,,,,right,0.134975910187,participant17,28,59.8701337631,M,trial,2017_May_29_1431,
,,0.23,"[-2.25, 0]",/sounds/legit/left35.wav,,,,,,,,,6,11,221,21,,,,,,,,,,,,,,,left,0.135013103485,participant17,28,59.8701337631,M,trial,2017_May_29_1431,
