path,name,noise,location,correspondingAudio,audiotrials.thisRepN,audiotrials.thisTrialN,audiotrials.thisN,audiotrials.thisIndex,visualTrials.thisRepN,visualTrials.thisTrialN,visualTrials.thisN,visualTrials.thisIndex,combinedTrials.thisRepN,combinedTrials.thisTrialN,combinedTrials.thisN,combinedTrials.thisIndex,WelcomeKey.keys,WelcomeKey.rt,key_resp_2.keys,key_resp_2.rt,AudioInstrAccept.keys,AudioInstrAccept.rt,LeftorRight.keys,LeftorRight.rt,VisualBlock.keys,VisualBlock.rt,VisualDecision.keys,VisualDecision.rt,CombinedAccept.keys,CombinedAccept.rt,CombComparisonResponse.keys,CombComparisonResponse.rt,participant,age,frameRate,sex,expName,date,
,,,,,,,,,,,,,,,,,space,24.5008528233,,,,,,,,,,,,,,,participant10,22,60.0647575459,female,trial,2017_May_27_1646,
,,,,,,,,,,,,,,,,,,,space,40.5068621635,,,,,,,,,,,,,participant10,22,60.0647575459,female,trial,2017_May_27_1646,
,,,,,,,,,,,,,,,,,,,,,space,27.3005430698,,,,,,,,,,,participant10,22,60.0647575459,female,trial,2017_May_27_1646,
/sounds/legit/equal.wav,equal,,,,0,0,0,6,,,,,,,,,,,,,,,left,43.6593949795,,,,,,,,,participant10,22,60.0647575459,female,trial,2017_May_27_1646,
/sounds/legit/left100.wav,left100,,,,0,1,1,0,,,,,,,,,,,,,,,left,2.63681197166,,,,,,,,,participant10,22,60.0647575459,female,trial,2017_May_27_1646,
/sounds/legit/left35.wav,left30,,,,0,2,2,2,,,,,,,,,,,,,,,left,1.63599205017,,,,,,,,,participant10,22,60.0647575459,female,trial,2017_May_27_1646,
/sounds/legit/right70.wav,right60,,,,0,3,3,4,,,,,,,,,,,,,,,right,0.602233886719,,,,,,,,,participant10,22,60.0647575459,female,trial,2017_May_27_1646,
/sounds/legit/right35.wav,right30,,,,0,4,4,3,,,,,,,,,,,,,,,right,6.75435495377,,,,,,,,,participant10,22,60.0647575459,female,trial,2017_May_27_1646,
/sounds/legit/left70.wav,left60,,,,0,5,5,1,,,,,,,,,,,,,,,left,0.551471948624,,,,,,,,,participant10,22,60.0647575459,female,trial,2017_May_27_1646,
/sounds/legit/right100.wav,right100,,,,0,6,6,5,,,,,,,,,,,,,,,right,0.335047006607,,,,,,,,,participant10,22,60.0647575459,female,trial,2017_May_27_1646,
/sounds/legit/left100.wav,left100,,,,1,0,7,0,,,,,,,,,,,,,,,left,0.401916027069,,,,,,,,,participant10,22,60.0647575459,female,trial,2017_May_27_1646,
/sounds/legit/right35.wav,right30,,,,1,1,8,3,,,,,,,,,,,,,,,right,0.333940982819,,,,,,,,,participant10,22,60.0647575459,female,trial,2017_May_27_1646,
/sounds/legit/equal.wav,equal,,,,1,2,9,6,,,,,,,,,,,,,,,left,5.32040905952,,,,,,,,,participant10,22,60.0647575459,female,trial,2017_May_27_1646,
/sounds/legit/left70.wav,left60,,,,1,3,10,1,,,,,,,,,,,,,,,left,0.386079072952,,,,,,,,,participant10,22,60.0647575459,female,trial,2017_May_27_1646,
/sounds/legit/right100.wav,right100,,,,1,4,11,5,,,,,,,,,,,,,,,right,0.317113161087,,,,,,,,,participant10,22,60.0647575459,female,trial,2017_May_27_1646,
/sounds/legit/right70.wav,right60,,,,1,5,12,4,,,,,,,,,,,,,,,right,0.436069011688,,,,,,,,,participant10,22,60.0647575459,female,trial,2017_May_27_1646,
/sounds/legit/left35.wav,left30,,,,1,6,13,2,,,,,,,,,,,,,,,left,1.48515892029,,,,,,,,,participant10,22,60.0647575459,female,trial,2017_May_27_1646,
/sounds/legit/equal.wav,equal,,,,2,0,14,6,,,,,,,,,,,,,,,left,0.984484910965,,,,,,,,,participant10,22,60.0647575459,female,trial,2017_May_27_1646,
/sounds/legit/left100.wav,left100,,,,2,1,15,0,,,,,,,,,,,,,,,left,0.416977882385,,,,,,,,,participant10,22,60.0647575459,female,trial,2017_May_27_1646,
/sounds/legit/left35.wav,left30,,,,2,2,16,2,,,,,,,,,,,,,,,left,0.500643968582,,,,,,,,,participant10,22,60.0647575459,female,trial,2017_May_27_1646,
/sounds/legit/right35.wav,right30,,,,2,3,17,3,,,,,,,,,,,,,,,right,0.368613958359,,,,,,,,,participant10,22,60.0647575459,female,trial,2017_May_27_1646,
/sounds/legit/right100.wav,right100,,,,2,4,18,5,,,,,,,,,,,,,,,right,0.251502990723,,,,,,,,,participant10,22,60.0647575459,female,trial,2017_May_27_1646,
/sounds/legit/left70.wav,left60,,,,2,5,19,1,,,,,,,,,,,,,,,left,0.602420091629,,,,,,,,,participant10,22,60.0647575459,female,trial,2017_May_27_1646,
/sounds/legit/right70.wav,right60,,,,2,6,20,4,,,,,,,,,,,,,,,right,0.219075918198,,,,,,,,,participant10,22,60.0647575459,female,trial,2017_May_27_1646,
/sounds/legit/left70.wav,left60,,,,3,0,21,1,,,,,,,,,,,,,,,left,0.335468053818,,,,,,,,,participant10,22,60.0647575459,female,trial,2017_May_27_1646,
/sounds/legit/right35.wav,right30,,,,3,1,22,3,,,,,,,,,,,,,,,right,0.368010997772,,,,,,,,,participant10,22,60.0647575459,female,trial,2017_May_27_1646,
/sounds/legit/right100.wav,right100,,,,3,2,23,5,,,,,,,,,,,,,,,right,0.352176904678,,,,,,,,,participant10,22,60.0647575459,female,trial,2017_May_27_1646,
/sounds/legit/right70.wav,right60,,,,3,3,24,4,,,,,,,,,,,,,,,right,0.268491983414,,,,,,,,,participant10,22,60.0647575459,female,trial,2017_May_27_1646,
/sounds/legit/equal.wav,equal,,,,3,4,25,6,,,,,,,,,,,,,,,left,0.552667140961,,,,,,,,,participant10,22,60.0647575459,female,trial,2017_May_27_1646,
/sounds/legit/left100.wav,left100,,,,3,5,26,0,,,,,,,,,,,,,,,left,0.317731142044,,,,,,,,,participant10,22,60.0647575459,female,trial,2017_May_27_1646,
/sounds/legit/left35.wav,left30,,,,3,6,27,2,,,,,,,,,,,,,,,left,0.534638881683,,,,,,,,,participant10,22,60.0647575459,female,trial,2017_May_27_1646,
/sounds/legit/left100.wav,left100,,,,4,0,28,0,,,,,,,,,,,,,,,left,0.301186084747,,,,,,,,,participant10,22,60.0647575459,female,trial,2017_May_27_1646,
/sounds/legit/right35.wav,right30,,,,4,1,29,3,,,,,,,,,,,,,,,left,1.05229187012,,,,,,,,,participant10,22,60.0647575459,female,trial,2017_May_27_1646,
/sounds/legit/right100.wav,right100,,,,4,2,30,5,,,,,,,,,,,,,,,right,0.219241857529,,,,,,,,,participant10,22,60.0647575459,female,trial,2017_May_27_1646,
/sounds/legit/left70.wav,left60,,,,4,3,31,1,,,,,,,,,,,,,,,left,0.168584823608,,,,,,,,,participant10,22,60.0647575459,female,trial,2017_May_27_1646,
/sounds/legit/equal.wav,equal,,,,4,4,32,6,,,,,,,,,,,,,,,left,0.184547901154,,,,,,,,,participant10,22,60.0647575459,female,trial,2017_May_27_1646,
/sounds/legit/right70.wav,right60,,,,4,5,33,4,,,,,,,,,,,,,,,right,0.0346550941467,,,,,,,,,participant10,22,60.0647575459,female,trial,2017_May_27_1646,
/sounds/legit/left35.wav,left30,,,,4,6,34,2,,,,,,,,,,,,,,,left,0.467674016953,,,,,,,,,participant10,22,60.0647575459,female,trial,2017_May_27_1646,
/sounds/legit/left70.wav,left60,,,,5,0,35,1,,,,,,,,,,,,,,,left,0.334224939346,,,,,,,,,participant10,22,60.0647575459,female,trial,2017_May_27_1646,
/sounds/legit/equal.wav,equal,,,,5,1,36,6,,,,,,,,,,,,,,,right,0.351083993912,,,,,,,,,participant10,22,60.0647575459,female,trial,2017_May_27_1646,
/sounds/legit/right100.wav,right100,,,,5,2,37,5,,,,,,,,,,,,,,,right,0.2177298069,,,,,,,,,participant10,22,60.0647575459,female,trial,2017_May_27_1646,
/sounds/legit/left100.wav,left100,,,,5,3,38,0,,,,,,,,,,,,,,,left,0.252488136292,,,,,,,,,participant10,22,60.0647575459,female,trial,2017_May_27_1646,
/sounds/legit/right35.wav,right30,,,,5,4,39,3,,,,,,,,,,,,,,,left,0.467427015305,,,,,,,,,participant10,22,60.0647575459,female,trial,2017_May_27_1646,
/sounds/legit/left35.wav,left30,,,,5,5,40,2,,,,,,,,,,,,,,,left,0.218312978745,,,,,,,,,participant10,22,60.0647575459,female,trial,2017_May_27_1646,
/sounds/legit/right70.wav,right60,,,,5,6,41,4,,,,,,,,,,,,,,,right,0.068351984024,,,,,,,,,participant10,22,60.0647575459,female,trial,2017_May_27_1646,
/sounds/legit/right35.wav,right30,,,,6,0,42,3,,,,,,,,,,,,,,,right,0.201766967773,,,,,,,,,participant10,22,60.0647575459,female,trial,2017_May_27_1646,
/sounds/legit/right70.wav,right60,,,,6,1,43,4,,,,,,,,,,,,,,,right,0.16731595993,,,,,,,,,participant10,22,60.0647575459,female,trial,2017_May_27_1646,
/sounds/legit/left100.wav,left100,,,,6,2,44,0,,,,,,,,,,,,,,,left,0.20122885704,,,,,,,,,participant10,22,60.0647575459,female,trial,2017_May_27_1646,
/sounds/legit/equal.wav,equal,,,,6,3,45,6,,,,,,,,,,,,,,,left,0.217504024506,,,,,,,,,participant10,22,60.0647575459,female,trial,2017_May_27_1646,
/sounds/legit/left35.wav,left30,,,,6,4,46,2,,,,,,,,,,,,,,,left,0.134238004684,,,,,,,,,participant10,22,60.0647575459,female,trial,2017_May_27_1646,
/sounds/legit/left70.wav,left60,,,,6,5,47,1,,,,,,,,,,,,,,,left,0.0508761405945,,,,,,,,,participant10,22,60.0647575459,female,trial,2017_May_27_1646,
/sounds/legit/right100.wav,right100,,,,6,6,48,5,,,,,,,,,,,,,,,right,0.134757995605,,,,,,,,,participant10,22,60.0647575459,female,trial,2017_May_27_1646,
/sounds/legit/left35.wav,left30,,,,7,0,49,2,,,,,,,,,,,,,,,left,0.218993902206,,,,,,,,,participant10,22,60.0647575459,female,trial,2017_May_27_1646,
/sounds/legit/right100.wav,right100,,,,7,1,50,5,,,,,,,,,,,,,,,right,0.13490486145,,,,,,,,,participant10,22,60.0647575459,female,trial,2017_May_27_1646,
/sounds/legit/equal.wav,equal,,,,7,2,51,6,,,,,,,,,,,,,,,left,1.01682901382,,,,,,,,,participant10,22,60.0647575459,female,trial,2017_May_27_1646,
/sounds/legit/left70.wav,left60,,,,7,3,52,1,,,,,,,,,,,,,,,left,0.234850168228,,,,,,,,,participant10,22,60.0647575459,female,trial,2017_May_27_1646,
/sounds/legit/right70.wav,right60,,,,7,4,53,4,,,,,,,,,,,,,,,right,0.0854799747467,,,,,,,,,participant10,22,60.0647575459,female,trial,2017_May_27_1646,
/sounds/legit/right35.wav,right30,,,,7,5,54,3,,,,,,,,,,,,,,,left,0.118384122849,,,,,,,,,participant10,22,60.0647575459,female,trial,2017_May_27_1646,
/sounds/legit/left100.wav,left100,,,,7,6,55,0,,,,,,,,,,,,,,,right,0.0843980312347,,,,,,,,,participant10,22,60.0647575459,female,trial,2017_May_27_1646,
/sounds/legit/left35.wav,left30,,,,8,0,56,2,,,,,,,,,,,,,,,left,0.602087020874,,,,,,,,,participant10,22,60.0647575459,female,trial,2017_May_27_1646,
/sounds/legit/right70.wav,right60,,,,8,1,57,4,,,,,,,,,,,,,,,right,0.150592088699,,,,,,,,,participant10,22,60.0647575459,female,trial,2017_May_27_1646,
/sounds/legit/right100.wav,right100,,,,8,2,58,5,,,,,,,,,,,,,,,right,0.134516954422,,,,,,,,,participant10,22,60.0647575459,female,trial,2017_May_27_1646,
/sounds/legit/left100.wav,left100,,,,8,3,59,0,,,,,,,,,,,,,,,left,0.0679621696472,,,,,,,,,participant10,22,60.0647575459,female,trial,2017_May_27_1646,
/sounds/legit/right35.wav,right30,,,,8,4,60,3,,,,,,,,,,,,,,,right,0.316493988037,,,,,,,,,participant10,22,60.0647575459,female,trial,2017_May_27_1646,
/sounds/legit/left70.wav,left60,,,,8,5,61,1,,,,,,,,,,,,,,,left,0.284857988358,,,,,,,,,participant10,22,60.0647575459,female,trial,2017_May_27_1646,
/sounds/legit/equal.wav,equal,,,,8,6,62,6,,,,,,,,,,,,,,,left,0.234611034393,,,,,,,,,participant10,22,60.0647575459,female,trial,2017_May_27_1646,
/sounds/legit/right35.wav,right30,,,,9,0,63,3,,,,,,,,,,,,,,,right,0.119297027588,,,,,,,,,participant10,22,60.0647575459,female,trial,2017_May_27_1646,
/sounds/legit/right100.wav,right100,,,,9,1,64,5,,,,,,,,,,,,,,,right,0.0859711170197,,,,,,,,,participant10,22,60.0647575459,female,trial,2017_May_27_1646,
/sounds/legit/equal.wav,equal,,,,9,2,65,6,,,,,,,,,,,,,,,left,0.184318065643,,,,,,,,,participant10,22,60.0647575459,female,trial,2017_May_27_1646,
/sounds/legit/left35.wav,left30,,,,9,3,66,2,,,,,,,,,,,,,,,left,0.201719999313,,,,,,,,,participant10,22,60.0647575459,female,trial,2017_May_27_1646,
/sounds/legit/right70.wav,right60,,,,9,4,67,4,,,,,,,,,,,,,,,right,0.60170006752,,,,,,,,,participant10,22,60.0647575459,female,trial,2017_May_27_1646,
/sounds/legit/left70.wav,left60,,,,9,5,68,1,,,,,,,,,,,,,,,left,0.103312969208,,,,,,,,,participant10,22,60.0647575459,female,trial,2017_May_27_1646,
/sounds/legit/left100.wav,left100,,,,9,6,69,0,,,,,,,,,,,,,,,left,0.101427078247,,,,,,,,,participant10,22,60.0647575459,female,trial,2017_May_27_1646,
,,,,,,,,,,,,,,,,,,,,,,,,,space,34.2038450241,,,,,,,participant10,22,60.0647575459,female,trial,2017_May_27_1646,
,,0.49,"[0, 0]",/sounds/legit/equal.wav,,,,,0,0,0,3,,,,,,,,,,,,,,,right,1.11744594574,,,,,participant10,22,60.0647575459,female,trial,2017_May_27_1646,
,,0.1,"[4.5, 0]",/sounds/legit/right70.wav,,,,,0,1,1,10,,,,,,,,,,,,,,,right,0.0174901485443,,,,,participant10,22,60.0647575459,female,trial,2017_May_27_1646,
,,0.1,"[-4.5, 0]",/sounds/legit/left70.wav,,,,,0,2,2,25,,,,,,,,,,,,,,,left,0.384688138962,,,,,participant10,22,60.0647575459,female,trial,2017_May_27_1646,
,,0.1,"[2.25, 0]",/sounds/legit/right35.wav,,,,,0,3,3,5,,,,,,,,,,,,,,,right,0.0184428691864,,,,,participant10,22,60.0647575459,female,trial,2017_May_27_1646,
,,0.23,"[-4.5, 0]",/sounds/legit/left70.wav,,,,,0,4,4,26,,,,,,,,,,,,,,,left,0.0348858833313,,,,,participant10,22,60.0647575459,female,trial,2017_May_27_1646,
,,0.36,"[-2.25, 0]",/sounds/legit/left35.wav,,,,,0,5,5,22,,,,,,,,,,,,,,,left,0.384702205658,,,,,participant10,22,60.0647575459,female,trial,2017_May_27_1646,
,,0.36,"[-4.5, 0]",/sounds/legit/left70.wav,,,,,0,6,6,27,,,,,,,,,,,,,,,left,0.0851998329163,,,,,participant10,22,60.0647575459,female,trial,2017_May_27_1646,
,,0.1,"[-6.75, 0]",/sounds/legit/left100.wav,,,,,0,7,7,30,,,,,,,,,,,,,,,left,0.1683781147,,,,,participant10,22,60.0647575459,female,trial,2017_May_27_1646,
,,0.23,"[-6.75, 0]",/sounds/legit/left100.wav,,,,,0,8,8,31,,,,,,,,,,,,,,,left,0.0499432086945,,,,,participant10,22,60.0647575459,female,trial,2017_May_27_1646,
,,0.36,"[6.75, 0]",/sounds/legit/right100.wav,,,,,0,9,9,17,,,,,,,,,,,,,,,right,5.50474095345,,,,,participant10,22,60.0647575459,female,trial,2017_May_27_1646,
,,0.23,"[6.75, 0]",/sounds/legit/right100.wav,,,,,0,10,10,16,,,,,,,,,,,,,,,right,0.0340209007263,,,,,participant10,22,60.0647575459,female,trial,2017_May_27_1646,
,,0.23,"[4.5, 0]",/sounds/legit/right70.wav,,,,,0,11,11,11,,,,,,,,,,,,,,,right,0.234425067902,,,,,participant10,22,60.0647575459,female,trial,2017_May_27_1646,
,,0.49,"[6.75, 0]",/sounds/legit/right100.wav,,,,,0,12,12,18,,,,,,,,,,,,,,,right,3.42039084435,,,,,participant10,22,60.0647575459,female,trial,2017_May_27_1646,
,,0.23,"[2.25, 0]",/sounds/legit/right35.wav,,,,,0,13,13,6,,,,,,,,,,,,,,,right,2.9872200489,,,,,participant10,22,60.0647575459,female,trial,2017_May_27_1646,
,,0.49,"[-4.5, 0]",/sounds/legit/left70.wav,,,,,0,14,14,28,,,,,,,,,,,,,,,left,1.08587002754,,,,,participant10,22,60.0647575459,female,trial,2017_May_27_1646,
,,0.23,"[-2.25, 0]",/sounds/legit/left35.wav,,,,,0,15,15,21,,,,,,,,,,,,,,,left,0.935646057129,,,,,participant10,22,60.0647575459,female,trial,2017_May_27_1646,
,,0.62,"[-2.25, 0]",/sounds/legit/left35.wav,,,,,0,16,16,24,,,,,,,,,,,,,,,right,1.30162191391,,,,,participant10,22,60.0647575459,female,trial,2017_May_27_1646,
,,0.1,"[-2.25, 0]",/sounds/legit/left35.wav,,,,,0,17,17,20,,,,,,,,,,,,,,,left,0.368965148926,,,,,participant10,22,60.0647575459,female,trial,2017_May_27_1646,
,,0.62,"[6.75, 0]",/sounds/legit/right100.wav,,,,,0,18,18,19,,,,,,,,,,,,,,,right,0.319005012512,,,,,participant10,22,60.0647575459,female,trial,2017_May_27_1646,
,,0.36,"[-6.75, 0]",/sounds/legit/left100.wav,,,,,0,19,19,32,,,,,,,,,,,,,,,left,0.451899051666,,,,,participant10,22,60.0647575459,female,trial,2017_May_27_1646,
,,0.62,"[2.25, 0]",/sounds/legit/right35.wav,,,,,0,20,20,9,,,,,,,,,,,,,,,right,2.41891980171,,,,,participant10,22,60.0647575459,female,trial,2017_May_27_1646,
,,0.49,"[2.25, 0]",/sounds/legit/right35.wav,,,,,0,21,21,8,,,,,,,,,,,,,,,right,2.26976108551,,,,,participant10,22,60.0647575459,female,trial,2017_May_27_1646,
,,0.49,"[-6.75, 0]",/sounds/legit/left100.wav,,,,,0,22,22,33,,,,,,,,,,,,,,,left,0.335391044617,,,,,participant10,22,60.0647575459,female,trial,2017_May_27_1646,
,,0.49,"[-2.25, 0]",/sounds/legit/left35.wav,,,,,0,23,23,23,,,,,,,,,,,,,,,left,0.833833932877,,,,,participant10,22,60.0647575459,female,trial,2017_May_27_1646,
,,0.36,"[2.25, 0]",/sounds/legit/right35.wav,,,,,0,24,24,7,,,,,,,,,,,,,,,right,1.55256509781,,,,,participant10,22,60.0647575459,female,trial,2017_May_27_1646,
,,0.49,"[4.5, 0]",/sounds/legit/right70.wav,,,,,0,25,25,13,,,,,,,,,,,,,,,right,0.668852090836,,,,,participant10,22,60.0647575459,female,trial,2017_May_27_1646,
,,0.62,"[-4.5, 0]",/sounds/legit/left70.wav,,,,,0,26,26,29,,,,,,,,,,,,,,,left,0.668411970139,,,,,participant10,22,60.0647575459,female,trial,2017_May_27_1646,
,,0.1,"[6.75, 0]",/sounds/legit/right100.wav,,,,,0,27,27,15,,,,,,,,,,,,,,,right,0.41734790802,,,,,participant10,22,60.0647575459,female,trial,2017_May_27_1646,
,,0.36,"[4.5, 0]",/sounds/legit/right70.wav,,,,,0,28,28,12,,,,,,,,,,,,,,,right,0.317419052124,,,,,participant10,22,60.0647575459,female,trial,2017_May_27_1646,
,,0.62,"[-6.75, 0]",/sounds/legit/left100.wav,,,,,0,29,29,34,,,,,,,,,,,,,,,left,0.451596975327,,,,,participant10,22,60.0647575459,female,trial,2017_May_27_1646,
,,0.36,"[0, 0]",/sounds/legit/equal.wav,,,,,0,30,30,2,,,,,,,,,,,,,,,right,0.4018471241,,,,,participant10,22,60.0647575459,female,trial,2017_May_27_1646,
,,0.62,"[0, 0]",/sounds/legit/equal.wav,,,,,0,31,31,4,,,,,,,,,,,,,,,left,4.58784914017,,,,,participant10,22,60.0647575459,female,trial,2017_May_27_1646,
,,0.62,"[4.5, 0]",/sounds/legit/right70.wav,,,,,0,32,32,14,,,,,,,,,,,,,,,right,0.819361925125,,,,,participant10,22,60.0647575459,female,trial,2017_May_27_1646,
,,0.1,"[0, 0]",/sounds/legit/equal.wav,,,,,0,33,33,0,,,,,,,,,,,,,,,left,1.28552007675,,,,,participant10,22,60.0647575459,female,trial,2017_May_27_1646,
,,0.23,"[0, 0]",/sounds/legit/equal.wav,,,,,0,34,34,1,,,,,,,,,,,,,,,right,0.650218963623,,,,,participant10,22,60.0647575459,female,trial,2017_May_27_1646,
,,0.1,"[0, 0]",/sounds/legit/equal.wav,,,,,1,0,35,0,,,,,,,,,,,,,,,left,1.3356859684,,,,,participant10,22,60.0647575459,female,trial,2017_May_27_1646,
,,0.23,"[-6.75, 0]",/sounds/legit/left100.wav,,,,,1,1,36,31,,,,,,,,,,,,,,,left,0.418725013733,,,,,participant10,22,60.0647575459,female,trial,2017_May_27_1646,
,,0.23,"[-2.25, 0]",/sounds/legit/left35.wav,,,,,1,2,37,21,,,,,,,,,,,,,,,left,0.568087100983,,,,,participant10,22,60.0647575459,female,trial,2017_May_27_1646,
,,0.1,"[-6.75, 0]",/sounds/legit/left100.wav,,,,,1,3,38,30,,,,,,,,,,,,,,,left,0.684247970581,,,,,participant10,22,60.0647575459,female,trial,2017_May_27_1646,
,,0.36,"[4.5, 0]",/sounds/legit/right70.wav,,,,,1,4,39,12,,,,,,,,,,,,,,,right,0.435073852539,,,,,participant10,22,60.0647575459,female,trial,2017_May_27_1646,
,,0.36,"[6.75, 0]",/sounds/legit/right100.wav,,,,,1,5,40,17,,,,,,,,,,,,,,,right,0.384575128555,,,,,participant10,22,60.0647575459,female,trial,2017_May_27_1646,
,,0.49,"[-2.25, 0]",/sounds/legit/left35.wav,,,,,1,6,41,23,,,,,,,,,,,,,,,left,0.301015138626,,,,,participant10,22,60.0647575459,female,trial,2017_May_27_1646,
,,0.1,"[-4.5, 0]",/sounds/legit/left70.wav,,,,,1,7,42,25,,,,,,,,,,,,,,,left,0.301800012589,,,,,participant10,22,60.0647575459,female,trial,2017_May_27_1646,
,,0.1,"[6.75, 0]",/sounds/legit/right100.wav,,,,,1,8,43,15,,,,,,,,,,,,,,,right,0.485780000687,,,,,participant10,22,60.0647575459,female,trial,2017_May_27_1646,
,,0.62,"[-4.5, 0]",/sounds/legit/left70.wav,,,,,1,9,44,29,,,,,,,,,,,,,,,left,0.451826810837,,,,,participant10,22,60.0647575459,female,trial,2017_May_27_1646,
,,0.36,"[-4.5, 0]",/sounds/legit/left70.wav,,,,,1,10,45,27,,,,,,,,,,,,,,,left,0.785124063492,,,,,participant10,22,60.0647575459,female,trial,2017_May_27_1646,
,,0.36,"[-6.75, 0]",/sounds/legit/left100.wav,,,,,1,11,46,32,,,,,,,,,,,,,,,left,0.417950153351,,,,,participant10,22,60.0647575459,female,trial,2017_May_27_1646,
,,0.62,"[6.75, 0]",/sounds/legit/right100.wav,,,,,1,12,47,19,,,,,,,,,,,,,,,right,0.451645851135,,,,,participant10,22,60.0647575459,female,trial,2017_May_27_1646,
,,0.23,"[-4.5, 0]",/sounds/legit/left70.wav,,,,,1,13,48,26,,,,,,,,,,,,,,,left,1.8196709156,,,,,participant10,22,60.0647575459,female,trial,2017_May_27_1646,
,,0.62,"[0, 0]",/sounds/legit/equal.wav,,,,,1,14,49,4,,,,,,,,,,,,,,,left,0.435389041901,,,,,participant10,22,60.0647575459,female,trial,2017_May_27_1646,
,,0.23,"[0, 0]",/sounds/legit/equal.wav,,,,,1,15,50,1,,,,,,,,,,,,,,,left,0.502768993378,,,,,participant10,22,60.0647575459,female,trial,2017_May_27_1646,
,,0.23,"[4.5, 0]",/sounds/legit/right70.wav,,,,,1,16,51,11,,,,,,,,,,,,,,,right,0.31835603714,,,,,participant10,22,60.0647575459,female,trial,2017_May_27_1646,
,,0.62,"[-2.25, 0]",/sounds/legit/left35.wav,,,,,1,17,52,24,,,,,,,,,,,,,,,left,0.467405080795,,,,,participant10,22,60.0647575459,female,trial,2017_May_27_1646,
,,0.1,"[-2.25, 0]",/sounds/legit/left35.wav,,,,,1,18,53,20,,,,,,,,,,,,,,,left,0.768873929977,,,,,participant10,22,60.0647575459,female,trial,2017_May_27_1646,
,,0.36,"[0, 0]",/sounds/legit/equal.wav,,,,,1,19,54,2,,,,,,,,,,,,,,,left,1.01912808418,,,,,participant10,22,60.0647575459,female,trial,2017_May_27_1646,
,,0.49,"[2.25, 0]",/sounds/legit/right35.wav,,,,,1,20,55,8,,,,,,,,,,,,,,,right,0.367849111557,,,,,participant10,22,60.0647575459,female,trial,2017_May_27_1646,
,,0.49,"[-6.75, 0]",/sounds/legit/left100.wav,,,,,1,21,56,33,,,,,,,,,,,,,,,left,0.667886972427,,,,,participant10,22,60.0647575459,female,trial,2017_May_27_1646,
,,0.49,"[4.5, 0]",/sounds/legit/right70.wav,,,,,1,22,57,13,,,,,,,,,,,,,,,right,0.801195859909,,,,,participant10,22,60.0647575459,female,trial,2017_May_27_1646,
,,0.49,"[6.75, 0]",/sounds/legit/right100.wav,,,,,1,23,58,18,,,,,,,,,,,,,,,right,0.285125017166,,,,,participant10,22,60.0647575459,female,trial,2017_May_27_1646,
,,0.36,"[-2.25, 0]",/sounds/legit/left35.wav,,,,,1,24,59,22,,,,,,,,,,,,,,,left,0.819119930267,,,,,participant10,22,60.0647575459,female,trial,2017_May_27_1646,
,,0.23,"[2.25, 0]",/sounds/legit/right35.wav,,,,,1,25,60,6,,,,,,,,,,,,,,,right,0.451725959778,,,,,participant10,22,60.0647575459,female,trial,2017_May_27_1646,
,,0.36,"[2.25, 0]",/sounds/legit/right35.wav,,,,,1,26,61,7,,,,,,,,,,,,,,,right,0.252264976501,,,,,participant10,22,60.0647575459,female,trial,2017_May_27_1646,
,,0.1,"[4.5, 0]",/sounds/legit/right70.wav,,,,,1,27,62,10,,,,,,,,,,,,,,,right,0.301259040833,,,,,participant10,22,60.0647575459,female,trial,2017_May_27_1646,
,,0.49,"[0, 0]",/sounds/legit/equal.wav,,,,,1,28,63,3,,,,,,,,,,,,,,,left,0.534847974777,,,,,participant10,22,60.0647575459,female,trial,2017_May_27_1646,
,,0.62,"[2.25, 0]",/sounds/legit/right35.wav,,,,,1,29,64,9,,,,,,,,,,,,,,,right,0.468641996384,,,,,participant10,22,60.0647575459,female,trial,2017_May_27_1646,
,,0.62,"[4.5, 0]",/sounds/legit/right70.wav,,,,,1,30,65,14,,,,,,,,,,,,,,,right,0.468288898468,,,,,participant10,22,60.0647575459,female,trial,2017_May_27_1646,
,,0.62,"[-6.75, 0]",/sounds/legit/left100.wav,,,,,1,31,66,34,,,,,,,,,,,,,,,left,0.468463897705,,,,,participant10,22,60.0647575459,female,trial,2017_May_27_1646,
,,0.23,"[6.75, 0]",/sounds/legit/right100.wav,,,,,1,32,67,16,,,,,,,,,,,,,,,right,0.467648983002,,,,,participant10,22,60.0647575459,female,trial,2017_May_27_1646,
,,0.49,"[-4.5, 0]",/sounds/legit/left70.wav,,,,,1,33,68,28,,,,,,,,,,,,,,,left,1.3846681118,,,,,participant10,22,60.0647575459,female,trial,2017_May_27_1646,
,,0.1,"[2.25, 0]",/sounds/legit/right35.wav,,,,,1,34,69,5,,,,,,,,,,,,,,,right,0.151772022247,,,,,participant10,22,60.0647575459,female,trial,2017_May_27_1646,
,,0.62,"[2.25, 0]",/sounds/legit/right35.wav,,,,,2,0,70,9,,,,,,,,,,,,,,,right,0.484786987305,,,,,participant10,22,60.0647575459,female,trial,2017_May_27_1646,
,,0.62,"[-4.5, 0]",/sounds/legit/left70.wav,,,,,2,1,71,29,,,,,,,,,,,,,,,left,0.569658041,,,,,participant10,22,60.0647575459,female,trial,2017_May_27_1646,
,,0.1,"[6.75, 0]",/sounds/legit/right100.wav,,,,,2,2,72,15,,,,,,,,,,,,,,,right,0.300752162933,,,,,participant10,22,60.0647575459,female,trial,2017_May_27_1646,
,,0.62,"[6.75, 0]",/sounds/legit/right100.wav,,,,,2,3,73,19,,,,,,,,,,,,,,,right,0.468825817108,,,,,participant10,22,60.0647575459,female,trial,2017_May_27_1646,
,,0.49,"[6.75, 0]",/sounds/legit/right100.wav,,,,,2,4,74,18,,,,,,,,,,,,,,,right,0.801386833191,,,,,participant10,22,60.0647575459,female,trial,2017_May_27_1646,
,,0.23,"[6.75, 0]",/sounds/legit/right100.wav,,,,,2,5,75,16,,,,,,,,,,,,,,,right,0.252026081085,,,,,participant10,22,60.0647575459,female,trial,2017_May_27_1646,
,,0.36,"[2.25, 0]",/sounds/legit/right35.wav,,,,,2,6,76,7,,,,,,,,,,,,,,,right,0.151226997375,,,,,participant10,22,60.0647575459,female,trial,2017_May_27_1646,
,,0.23,"[-2.25, 0]",/sounds/legit/left35.wav,,,,,2,7,77,21,,,,,,,,,,,,,,,left,0.201445102692,,,,,participant10,22,60.0647575459,female,trial,2017_May_27_1646,
,,0.23,"[2.25, 0]",/sounds/legit/right35.wav,,,,,2,8,78,6,,,,,,,,,,,,,,,right,0.218742847443,,,,,participant10,22,60.0647575459,female,trial,2017_May_27_1646,
,,0.36,"[-4.5, 0]",/sounds/legit/left70.wav,,,,,2,9,79,27,,,,,,,,,,,,,,,left,0.30061507225,,,,,participant10,22,60.0647575459,female,trial,2017_May_27_1646,
,,0.49,"[-2.25, 0]",/sounds/legit/left35.wav,,,,,2,10,80,23,,,,,,,,,,,,,,,left,0.101762056351,,,,,participant10,22,60.0647575459,female,trial,2017_May_27_1646,
,,0.49,"[-6.75, 0]",/sounds/legit/left100.wav,,,,,2,11,81,33,,,,,,,,,,,,,,,left,0.00165486335754,,,,,participant10,22,60.0647575459,female,trial,2017_May_27_1646,
,,0.62,"[-2.25, 0]",/sounds/legit/left35.wav,,,,,2,12,82,24,,,,,,,,,,,,,,,left,0.16796207428,,,,,participant10,22,60.0647575459,female,trial,2017_May_27_1646,
,,0.23,"[0, 0]",/sounds/legit/equal.wav,,,,,2,13,83,1,,,,,,,,,,,,,,,left,0.568737983704,,,,,participant10,22,60.0647575459,female,trial,2017_May_27_1646,
,,0.49,"[0, 0]",/sounds/legit/equal.wav,,,,,2,14,84,3,,,,,,,,,,,,,,,left,0.935670137405,,,,,participant10,22,60.0647575459,female,trial,2017_May_27_1646,
,,0.1,"[-6.75, 0]",/sounds/legit/left100.wav,,,,,2,15,85,30,,,,,,,,,,,,,,,left,0.00157999992371,,,,,participant10,22,60.0647575459,female,trial,2017_May_27_1646,
,,0.62,"[-6.75, 0]",/sounds/legit/left100.wav,,,,,2,16,86,34,,,,,,,,,,,,,,,left,0.0856561660767,,,,,participant10,22,60.0647575459,female,trial,2017_May_27_1646,
,,0.36,"[-2.25, 0]",/sounds/legit/left35.wav,,,,,2,17,87,22,,,,,,,,,,,,,,,left,3.53594112396,,,,,participant10,22,60.0647575459,female,trial,2017_May_27_1646,
,,0.1,"[0, 0]",/sounds/legit/equal.wav,,,,,2,18,88,0,,,,,,,,,,,,,,,left,0.701550006866,,,,,participant10,22,60.0647575459,female,trial,2017_May_27_1646,
,,0.62,"[0, 0]",/sounds/legit/equal.wav,,,,,2,19,89,4,,,,,,,,,,,,,,,left,0.435291051865,,,,,participant10,22,60.0647575459,female,trial,2017_May_27_1646,
,,0.62,"[4.5, 0]",/sounds/legit/right70.wav,,,,,2,20,90,14,,,,,,,,,,,,,,,right,2.91948604584,,,,,participant10,22,60.0647575459,female,trial,2017_May_27_1646,
,,0.49,"[4.5, 0]",/sounds/legit/right70.wav,,,,,2,21,91,13,,,,,,,,,,,,,,,right,0.385236978531,,,,,participant10,22,60.0647575459,female,trial,2017_May_27_1646,
,,0.36,"[4.5, 0]",/sounds/legit/right70.wav,,,,,2,22,92,12,,,,,,,,,,,,,,,right,0.101068019867,,,,,participant10,22,60.0647575459,female,trial,2017_May_27_1646,
,,0.49,"[2.25, 0]",/sounds/legit/right35.wav,,,,,2,23,93,8,,,,,,,,,,,,,,,right,3.77127718925,,,,,participant10,22,60.0647575459,female,trial,2017_May_27_1646,
,,0.49,"[-4.5, 0]",/sounds/legit/left70.wav,,,,,2,24,94,28,,,,,,,,,,,,,,,left,0.351701021194,,,,,participant10,22,60.0647575459,female,trial,2017_May_27_1646,
,,0.23,"[4.5, 0]",/sounds/legit/right70.wav,,,,,2,25,95,11,,,,,,,,,,,,,,,right,0.368319988251,,,,,participant10,22,60.0647575459,female,trial,2017_May_27_1646,
,,0.1,"[4.5, 0]",/sounds/legit/right70.wav,,,,,2,26,96,10,,,,,,,,,,,,,,,right,0.251718044281,,,,,participant10,22,60.0647575459,female,trial,2017_May_27_1646,
,,0.23,"[-4.5, 0]",/sounds/legit/left70.wav,,,,,2,27,97,26,,,,,,,,,,,,,,,left,0.151365995407,,,,,participant10,22,60.0647575459,female,trial,2017_May_27_1646,
,,0.23,"[-6.75, 0]",/sounds/legit/left100.wav,,,,,2,28,98,31,,,,,,,,,,,,,,,left,0.201678037643,,,,,participant10,22,60.0647575459,female,trial,2017_May_27_1646,
,,0.36,"[-6.75, 0]",/sounds/legit/left100.wav,,,,,2,29,99,32,,,,,,,,,,,,,,,left,0.317847967148,,,,,participant10,22,60.0647575459,female,trial,2017_May_27_1646,
,,0.1,"[-4.5, 0]",/sounds/legit/left70.wav,,,,,2,30,100,25,,,,,,,,,,,,,,,left,0.385711193085,,,,,participant10,22,60.0647575459,female,trial,2017_May_27_1646,
,,0.1,"[2.25, 0]",/sounds/legit/right35.wav,,,,,2,31,101,5,,,,,,,,,,,,,,,right,0.601745843887,,,,,participant10,22,60.0647575459,female,trial,2017_May_27_1646,
,,0.36,"[0, 0]",/sounds/legit/equal.wav,,,,,2,32,102,2,,,,,,,,,,,,,,,right,0.568758964539,,,,,participant10,22,60.0647575459,female,trial,2017_May_27_1646,
,,0.36,"[6.75, 0]",/sounds/legit/right100.wav,,,,,2,33,103,17,,,,,,,,,,,,,,,right,0.268602848053,,,,,participant10,22,60.0647575459,female,trial,2017_May_27_1646,
,,0.1,"[-2.25, 0]",/sounds/legit/left35.wav,,,,,2,34,104,20,,,,,,,,,,,,,,,left,0.0523240566254,,,,,participant10,22,60.0647575459,female,trial,2017_May_27_1646,
,,0.23,"[-2.25, 0]",/sounds/legit/left35.wav,,,,,3,0,105,21,,,,,,,,,,,,,,,left,2.80289983749,,,,,participant10,22,60.0647575459,female,trial,2017_May_27_1646,
,,0.49,"[4.5, 0]",/sounds/legit/right70.wav,,,,,3,1,106,13,,,,,,,,,,,,,,,right,1.98632001877,,,,,participant10,22,60.0647575459,female,trial,2017_May_27_1646,
,,0.23,"[0, 0]",/sounds/legit/equal.wav,,,,,3,2,107,1,,,,,,,,,,,,,,,right,0.434518098831,,,,,participant10,22,60.0647575459,female,trial,2017_May_27_1646,
,,0.49,"[-4.5, 0]",/sounds/legit/left70.wav,,,,,3,3,108,28,,,,,,,,,,,,,,,left,0.00168085098267,,,,,participant10,22,60.0647575459,female,trial,2017_May_27_1646,
,,0.62,"[-2.25, 0]",/sounds/legit/left35.wav,,,,,3,4,109,24,,,,,,,,,,,,,,,left,0.118119001389,,,,,participant10,22,60.0647575459,female,trial,2017_May_27_1646,
,,0.23,"[4.5, 0]",/sounds/legit/right70.wav,,,,,3,5,110,11,,,,,,,,,,,,,,,right,0.135285139084,,,,,participant10,22,60.0647575459,female,trial,2017_May_27_1646,
,,0.1,"[-6.75, 0]",/sounds/legit/left100.wav,,,,,3,6,111,30,,,,,,,,,,,,,,,left,2.28594303131,,,,,participant10,22,60.0647575459,female,trial,2017_May_27_1646,
,,0.36,"[-2.25, 0]",/sounds/legit/left35.wav,,,,,3,7,112,22,,,,,,,,,,,,,,,left,0.46831202507,,,,,participant10,22,60.0647575459,female,trial,2017_May_27_1646,
,,0.36,"[6.75, 0]",/sounds/legit/right100.wav,,,,,3,8,113,17,,,,,,,,,,,,,,,right,5.93776297569,,,,,participant10,22,60.0647575459,female,trial,2017_May_27_1646,
,,0.1,"[6.75, 0]",/sounds/legit/right100.wav,,,,,3,9,114,15,,,,,,,,,,,,,,,right,3.93733501434,,,,,participant10,22,60.0647575459,female,trial,2017_May_27_1646,
,,0.1,"[0, 0]",/sounds/legit/equal.wav,,,,,3,10,115,0,,,,,,,,,,,,,,,left,0.452612161636,,,,,participant10,22,60.0647575459,female,trial,2017_May_27_1646,
,,0.23,"[-4.5, 0]",/sounds/legit/left70.wav,,,,,3,11,116,26,,,,,,,,,,,,,,,left,0.468446969986,,,,,participant10,22,60.0647575459,female,trial,2017_May_27_1646,
,,0.62,"[2.25, 0]",/sounds/legit/right35.wav,,,,,3,12,117,9,,,,,,,,,,,,,,,right,0.318146944046,,,,,participant10,22,60.0647575459,female,trial,2017_May_27_1646,
,,0.36,"[0, 0]",/sounds/legit/equal.wav,,,,,3,13,118,2,,,,,,,,,,,,,,,left,0.0683479309082,,,,,participant10,22,60.0647575459,female,trial,2017_May_27_1646,
,,0.1,"[-4.5, 0]",/sounds/legit/left70.wav,,,,,3,14,119,25,,,,,,,,,,,,,,,left,0.00166201591492,,,,,participant10,22,60.0647575459,female,trial,2017_May_27_1646,
,,0.62,"[0, 0]",/sounds/legit/equal.wav,,,,,3,15,120,4,,,,,,,,,,,,,,,right,0.55287694931,,,,,participant10,22,60.0647575459,female,trial,2017_May_27_1646,
,,0.23,"[6.75, 0]",/sounds/legit/right100.wav,,,,,3,16,121,16,,,,,,,,,,,,,,,right,1.43649888039,,,,,participant10,22,60.0647575459,female,trial,2017_May_27_1646,
,,0.62,"[-4.5, 0]",/sounds/legit/left70.wav,,,,,3,17,122,29,,,,,,,,,,,,,,,left,0.268193006516,,,,,participant10,22,60.0647575459,female,trial,2017_May_27_1646,
,,0.49,"[-6.75, 0]",/sounds/legit/left100.wav,,,,,3,18,123,33,,,,,,,,,,,,,,,right,1.51873493195,,,,,participant10,22,60.0647575459,female,trial,2017_May_27_1646,
,,0.62,"[-6.75, 0]",/sounds/legit/left100.wav,,,,,3,19,124,34,,,,,,,,,,,,,,,left,0.101305961609,,,,,participant10,22,60.0647575459,female,trial,2017_May_27_1646,
,,0.36,"[4.5, 0]",/sounds/legit/right70.wav,,,,,3,20,125,12,,,,,,,,,,,,,,,right,0.252135038376,,,,,participant10,22,60.0647575459,female,trial,2017_May_27_1646,
,,0.36,"[-6.75, 0]",/sounds/legit/left100.wav,,,,,3,21,126,32,,,,,,,,,,,,,,,left,0.118176937103,,,,,participant10,22,60.0647575459,female,trial,2017_May_27_1646,
,,0.49,"[-2.25, 0]",/sounds/legit/left35.wav,,,,,3,22,127,23,,,,,,,,,,,,,,,right,5.35472416878,,,,,participant10,22,60.0647575459,female,trial,2017_May_27_1646,
,,0.49,"[2.25, 0]",/sounds/legit/right35.wav,,,,,3,23,128,8,,,,,,,,,,,,,,,right,1.60254120827,,,,,participant10,22,60.0647575459,female,trial,2017_May_27_1646,
,,0.1,"[4.5, 0]",/sounds/legit/right70.wav,,,,,3,24,129,10,,,,,,,,,,,,,,,right,1.03465104103,,,,,participant10,22,60.0647575459,female,trial,2017_May_27_1646,
,,0.23,"[-6.75, 0]",/sounds/legit/left100.wav,,,,,3,25,130,31,,,,,,,,,,,,,,,left,0.65107011795,,,,,participant10,22,60.0647575459,female,trial,2017_May_27_1646,
,,0.1,"[2.25, 0]",/sounds/legit/right35.wav,,,,,3,26,131,5,,,,,,,,,,,,,,,right,0.90202999115,,,,,participant10,22,60.0647575459,female,trial,2017_May_27_1646,
,,0.36,"[-4.5, 0]",/sounds/legit/left70.wav,,,,,3,27,132,27,,,,,,,,,,,,,,,left,0.751723051071,,,,,participant10,22,60.0647575459,female,trial,2017_May_27_1646,
,,0.49,"[6.75, 0]",/sounds/legit/right100.wav,,,,,3,28,133,18,,,,,,,,,,,,,,,right,2.38593387604,,,,,participant10,22,60.0647575459,female,trial,2017_May_27_1646,
,,0.62,"[4.5, 0]",/sounds/legit/right70.wav,,,,,3,29,134,14,,,,,,,,,,,,,,,right,0.184108972549,,,,,participant10,22,60.0647575459,female,trial,2017_May_27_1646,
,,0.1,"[-2.25, 0]",/sounds/legit/left35.wav,,,,,3,30,135,20,,,,,,,,,,,,,,,left,0.0677540302277,,,,,participant10,22,60.0647575459,female,trial,2017_May_27_1646,
,,0.49,"[0, 0]",/sounds/legit/equal.wav,,,,,3,31,136,3,,,,,,,,,,,,,,,left,1.00222206116,,,,,participant10,22,60.0647575459,female,trial,2017_May_27_1646,
,,0.62,"[6.75, 0]",/sounds/legit/right100.wav,,,,,3,32,137,19,,,,,,,,,,,,,,,right,0.952191114426,,,,,participant10,22,60.0647575459,female,trial,2017_May_27_1646,
,,0.36,"[2.25, 0]",/sounds/legit/right35.wav,,,,,3,33,138,7,,,,,,,,,,,,,,,right,0.901974916458,,,,,participant10,22,60.0647575459,female,trial,2017_May_27_1646,
,,0.23,"[2.25, 0]",/sounds/legit/right35.wav,,,,,3,34,139,6,,,,,,,,,,,,,,,right,2.85369205475,,,,,participant10,22,60.0647575459,female,trial,2017_May_27_1646,
,,0.62,"[0, 0]",/sounds/legit/equal.wav,,,,,4,0,140,4,,,,,,,,,,,,,,,right,0.433888912201,,,,,participant10,22,60.0647575459,female,trial,2017_May_27_1646,
,,0.49,"[2.25, 0]",/sounds/legit/right35.wav,,,,,4,1,141,8,,,,,,,,,,,,,,,right,0.50107717514,,,,,participant10,22,60.0647575459,female,trial,2017_May_27_1646,
,,0.62,"[-4.5, 0]",/sounds/legit/left70.wav,,,,,4,2,142,29,,,,,,,,,,,,,,,left,0.519026994705,,,,,participant10,22,60.0647575459,female,trial,2017_May_27_1646,
,,0.23,"[6.75, 0]",/sounds/legit/right100.wav,,,,,4,3,143,16,,,,,,,,,,,,,,,right,0.0852670669556,,,,,participant10,22,60.0647575459,female,trial,2017_May_27_1646,
,,0.1,"[-6.75, 0]",/sounds/legit/left100.wav,,,,,4,4,144,30,,,,,,,,,,,,,,,left,0.0349171161652,,,,,participant10,22,60.0647575459,female,trial,2017_May_27_1646,
,,0.23,"[-6.75, 0]",/sounds/legit/left100.wav,,,,,4,5,145,31,,,,,,,,,,,,,,,left,0.0355088710785,,,,,participant10,22,60.0647575459,female,trial,2017_May_27_1646,
,,0.23,"[4.5, 0]",/sounds/legit/right70.wav,,,,,4,6,146,11,,,,,,,,,,,,,,,right,4.05261921883,,,,,participant10,22,60.0647575459,female,trial,2017_May_27_1646,
,,0.1,"[-2.25, 0]",/sounds/legit/left35.wav,,,,,4,7,147,20,,,,,,,,,,,,,,,left,1.01943302155,,,,,participant10,22,60.0647575459,female,trial,2017_May_27_1646,
,,0.62,"[-6.75, 0]",/sounds/legit/left100.wav,,,,,4,8,148,34,,,,,,,,,,,,,,,left,0.134130954742,,,,,participant10,22,60.0647575459,female,trial,2017_May_27_1646,
,,0.23,"[-2.25, 0]",/sounds/legit/left35.wav,,,,,4,9,149,21,,,,,,,,,,,,,,,left,2.05293798447,,,,,participant10,22,60.0647575459,female,trial,2017_May_27_1646,
,,0.49,"[4.5, 0]",/sounds/legit/right70.wav,,,,,4,10,150,13,,,,,,,,,,,,,,,right,3.22001194954,,,,,participant10,22,60.0647575459,female,trial,2017_May_27_1646,
,,0.36,"[4.5, 0]",/sounds/legit/right70.wav,,,,,4,11,151,12,,,,,,,,,,,,,,,right,0.000323057174683,,,,,participant10,22,60.0647575459,female,trial,2017_May_27_1646,
,,0.62,"[-2.25, 0]",/sounds/legit/left35.wav,,,,,4,12,152,24,,,,,,,,,,,,,,,left,0.800943851471,,,,,participant10,22,60.0647575459,female,trial,2017_May_27_1646,
,,0.36,"[6.75, 0]",/sounds/legit/right100.wav,,,,,4,13,153,17,,,,,,,,,,,,,,,right,0.00161910057068,,,,,participant10,22,60.0647575459,female,trial,2017_May_27_1646,
,,0.62,"[4.5, 0]",/sounds/legit/right70.wav,,,,,4,14,154,14,,,,,,,,,,,,,,,right,0.167667865753,,,,,participant10,22,60.0647575459,female,trial,2017_May_27_1646,
,,0.23,"[-4.5, 0]",/sounds/legit/left70.wav,,,,,4,15,155,26,,,,,,,,,,,,,,,left,3.11977410316,,,,,participant10,22,60.0647575459,female,trial,2017_May_27_1646,
,,0.23,"[2.25, 0]",/sounds/legit/right35.wav,,,,,4,16,156,6,,,,,,,,,,,,,,,right,4.10235190392,,,,,participant10,22,60.0647575459,female,trial,2017_May_27_1646,
,,0.49,"[-6.75, 0]",/sounds/legit/left100.wav,,,,,4,17,157,33,,,,,,,,,,,,,,,left,0.0847189426422,,,,,participant10,22,60.0647575459,female,trial,2017_May_27_1646,
,,0.36,"[0, 0]",/sounds/legit/equal.wav,,,,,4,18,158,2,,,,,,,,,,,,,,,right,0.818868160248,,,,,participant10,22,60.0647575459,female,trial,2017_May_27_1646,
,,0.1,"[6.75, 0]",/sounds/legit/right100.wav,,,,,4,19,159,15,,,,,,,,,,,,,,,right,0.801419973373,,,,,participant10,22,60.0647575459,female,trial,2017_May_27_1646,
,,0.23,"[0, 0]",/sounds/legit/equal.wav,,,,,4,20,160,1,,,,,,,,,,,,,,,right,1.65215492249,,,,,participant10,22,60.0647575459,female,trial,2017_May_27_1646,
,,0.1,"[2.25, 0]",/sounds/legit/right35.wav,,,,,4,21,161,5,,,,,,,,,,,,,,,right,3.40350198746,,,,,participant10,22,60.0647575459,female,trial,2017_May_27_1646,
,,0.49,"[-2.25, 0]",/sounds/legit/left35.wav,,,,,4,22,162,23,,,,,,,,,,,,,,,left,1.78585886955,,,,,participant10,22,60.0647575459,female,trial,2017_May_27_1646,
,,0.36,"[-4.5, 0]",/sounds/legit/left70.wav,,,,,4,23,163,27,,,,,,,,,,,,,,,right,0.51869893074,,,,,participant10,22,60.0647575459,female,trial,2017_May_27_1646,
,,0.1,"[0, 0]",/sounds/legit/equal.wav,,,,,4,24,164,0,,,,,,,,,,,,,,,right,0.00154995918274,,,,,participant10,22,60.0647575459,female,trial,2017_May_27_1646,
,,0.36,"[2.25, 0]",/sounds/legit/right35.wav,,,,,4,25,165,7,,,,,,,,,,,,,,,right,0.0349159240723,,,,,participant10,22,60.0647575459,female,trial,2017_May_27_1646,
,,0.1,"[-4.5, 0]",/sounds/legit/left70.wav,,,,,4,26,166,25,,,,,,,,,,,,,,,left,4.93701696396,,,,,participant10,22,60.0647575459,female,trial,2017_May_27_1646,
,,0.62,"[6.75, 0]",/sounds/legit/right100.wav,,,,,4,27,167,19,,,,,,,,,,,,,,,right,0.0844299793243,,,,,participant10,22,60.0647575459,female,trial,2017_May_27_1646,
,,0.1,"[4.5, 0]",/sounds/legit/right70.wav,,,,,4,28,168,10,,,,,,,,,,,,,,,right,2.81987285614,,,,,participant10,22,60.0647575459,female,trial,2017_May_27_1646,
,,0.36,"[-2.25, 0]",/sounds/legit/left35.wav,,,,,4,29,169,22,,,,,,,,,,,,,,,left,0.234560012817,,,,,participant10,22,60.0647575459,female,trial,2017_May_27_1646,
,,0.49,"[0, 0]",/sounds/legit/equal.wav,,,,,4,30,170,3,,,,,,,,,,,,,,,right,0.418458938599,,,,,participant10,22,60.0647575459,female,trial,2017_May_27_1646,
,,0.62,"[2.25, 0]",/sounds/legit/right35.wav,,,,,4,31,171,9,,,,,,,,,,,,,,,right,0.401793956757,,,,,participant10,22,60.0647575459,female,trial,2017_May_27_1646,
,,0.49,"[6.75, 0]",/sounds/legit/right100.wav,,,,,4,32,172,18,,,,,,,,,,,,,,,right,2.27024817467,,,,,participant10,22,60.0647575459,female,trial,2017_May_27_1646,
,,0.36,"[-6.75, 0]",/sounds/legit/left100.wav,,,,,4,33,173,32,,,,,,,,,,,,,,,left,0.134513139725,,,,,participant10,22,60.0647575459,female,trial,2017_May_27_1646,
,,0.49,"[-4.5, 0]",/sounds/legit/left70.wav,,,,,4,34,174,28,,,,,,,,,,,,,,,left,0.468339920044,,,,,participant10,22,60.0647575459,female,trial,2017_May_27_1646,
,,0.36,"[0, 0]",/sounds/legit/equal.wav,,,,,5,0,175,2,,,,,,,,,,,,,,,left,0.670048952103,,,,,participant10,22,60.0647575459,female,trial,2017_May_27_1646,
,,0.36,"[2.25, 0]",/sounds/legit/right35.wav,,,,,5,1,176,7,,,,,,,,,,,,,,,right,0.352252006531,,,,,participant10,22,60.0647575459,female,trial,2017_May_27_1646,
,,0.36,"[-4.5, 0]",/sounds/legit/left70.wav,,,,,5,2,177,27,,,,,,,,,,,,,,,left,0.735249042511,,,,,participant10,22,60.0647575459,female,trial,2017_May_27_1646,
,,0.62,"[2.25, 0]",/sounds/legit/right35.wav,,,,,5,3,178,9,,,,,,,,,,,,,,,right,3.55308818817,,,,,participant10,22,60.0647575459,female,trial,2017_May_27_1646,
,,0.62,"[-2.25, 0]",/sounds/legit/left35.wav,,,,,5,4,179,24,,,,,,,,,,,,,,,left,0.568108797073,,,,,participant10,22,60.0647575459,female,trial,2017_May_27_1646,
,,0.23,"[-4.5, 0]",/sounds/legit/left70.wav,,,,,5,5,180,26,,,,,,,,,,,,,,,left,0.152357816696,,,,,participant10,22,60.0647575459,female,trial,2017_May_27_1646,
,,0.62,"[4.5, 0]",/sounds/legit/right70.wav,,,,,5,6,181,14,,,,,,,,,,,,,,,right,0.301697969437,,,,,participant10,22,60.0647575459,female,trial,2017_May_27_1646,
,,0.62,"[6.75, 0]",/sounds/legit/right100.wav,,,,,5,7,182,19,,,,,,,,,,,,,,,right,0.0183370113373,,,,,participant10,22,60.0647575459,female,trial,2017_May_27_1646,
,,0.1,"[-6.75, 0]",/sounds/legit/left100.wav,,,,,5,8,183,30,,,,,,,,,,,,,,,left,0.167582988739,,,,,participant10,22,60.0647575459,female,trial,2017_May_27_1646,
,,0.62,"[0, 0]",/sounds/legit/equal.wav,,,,,5,9,184,4,,,,,,,,,,,,,,,left,0.534728050232,,,,,participant10,22,60.0647575459,female,trial,2017_May_27_1646,
,,0.62,"[-4.5, 0]",/sounds/legit/left70.wav,,,,,5,10,185,29,,,,,,,,,,,,,,,left,0.351799964905,,,,,participant10,22,60.0647575459,female,trial,2017_May_27_1646,
,,0.49,"[-2.25, 0]",/sounds/legit/left35.wav,,,,,5,11,186,23,,,,,,,,,,,,,,,left,0.068785905838,,,,,participant10,22,60.0647575459,female,trial,2017_May_27_1646,
,,0.49,"[6.75, 0]",/sounds/legit/right100.wav,,,,,5,12,187,18,,,,,,,,,,,,,,,right,0.568253993988,,,,,participant10,22,60.0647575459,female,trial,2017_May_27_1646,
,,0.36,"[-2.25, 0]",/sounds/legit/left35.wav,,,,,5,13,188,22,,,,,,,,,,,,,,,left,0.384488105774,,,,,participant10,22,60.0647575459,female,trial,2017_May_27_1646,
,,0.49,"[-4.5, 0]",/sounds/legit/left70.wav,,,,,5,14,189,28,,,,,,,,,,,,,,,left,0.351761102676,,,,,participant10,22,60.0647575459,female,trial,2017_May_27_1646,
,,0.49,"[2.25, 0]",/sounds/legit/right35.wav,,,,,5,15,190,8,,,,,,,,,,,,,,,right,0.302381038666,,,,,participant10,22,60.0647575459,female,trial,2017_May_27_1646,
,,0.36,"[-6.75, 0]",/sounds/legit/left100.wav,,,,,5,16,191,32,,,,,,,,,,,,,,,left,0.00165820121765,,,,,participant10,22,60.0647575459,female,trial,2017_May_27_1646,
,,0.23,"[0, 0]",/sounds/legit/equal.wav,,,,,5,17,192,1,,,,,,,,,,,,,,,right,2.08732700348,,,,,participant10,22,60.0647575459,female,trial,2017_May_27_1646,
,,0.36,"[4.5, 0]",/sounds/legit/right70.wav,,,,,5,18,193,12,,,,,,,,,,,,,,,right,0.318458080292,,,,,participant10,22,60.0647575459,female,trial,2017_May_27_1646,
,,0.1,"[0, 0]",/sounds/legit/equal.wav,,,,,5,19,194,0,,,,,,,,,,,,,,,left,0.450172901154,,,,,participant10,22,60.0647575459,female,trial,2017_May_27_1646,
,,0.1,"[-2.25, 0]",/sounds/legit/left35.wav,,,,,5,20,195,20,,,,,,,,,,,,,,,left,0.385104894638,,,,,participant10,22,60.0647575459,female,trial,2017_May_27_1646,
,,0.23,"[-2.25, 0]",/sounds/legit/left35.wav,,,,,5,21,196,21,,,,,,,,,,,,,,,left,0.117387056351,,,,,participant10,22,60.0647575459,female,trial,2017_May_27_1646,
,,0.62,"[-6.75, 0]",/sounds/legit/left100.wav,,,,,5,22,197,34,,,,,,,,,,,,,,,left,0.051096200943,,,,,participant10,22,60.0647575459,female,trial,2017_May_27_1646,
,,0.1,"[6.75, 0]",/sounds/legit/right100.wav,,,,,5,23,198,15,,,,,,,,,,,,,,,right,0.134814977646,,,,,participant10,22,60.0647575459,female,trial,2017_May_27_1646,
,,0.49,"[0, 0]",/sounds/legit/equal.wav,,,,,5,24,199,3,,,,,,,,,,,,,,,left,0.351960897446,,,,,participant10,22,60.0647575459,female,trial,2017_May_27_1646,
,,0.49,"[4.5, 0]",/sounds/legit/right70.wav,,,,,5,25,200,13,,,,,,,,,,,,,,,right,0.100927114487,,,,,participant10,22,60.0647575459,female,trial,2017_May_27_1646,
,,0.23,"[2.25, 0]",/sounds/legit/right35.wav,,,,,5,26,201,6,,,,,,,,,,,,,,,right,0.0679888725281,,,,,participant10,22,60.0647575459,female,trial,2017_May_27_1646,
,,0.1,"[2.25, 0]",/sounds/legit/right35.wav,,,,,5,27,202,5,,,,,,,,,,,,,,,right,0.268677949905,,,,,participant10,22,60.0647575459,female,trial,2017_May_27_1646,
,,0.1,"[4.5, 0]",/sounds/legit/right70.wav,,,,,5,28,203,10,,,,,,,,,,,,,,,right,2.77003502846,,,,,participant10,22,60.0647575459,female,trial,2017_May_27_1646,
,,0.36,"[6.75, 0]",/sounds/legit/right100.wav,,,,,5,29,204,17,,,,,,,,,,,,,,,right,3.06974482536,,,,,participant10,22,60.0647575459,female,trial,2017_May_27_1646,
,,0.23,"[-6.75, 0]",/sounds/legit/left100.wav,,,,,5,30,205,31,,,,,,,,,,,,,,,left,0.00148415565491,,,,,participant10,22,60.0647575459,female,trial,2017_May_27_1646,
,,0.23,"[4.5, 0]",/sounds/legit/right70.wav,,,,,5,31,206,11,,,,,,,,,,,,,,,right,0.0683879852295,,,,,participant10,22,60.0647575459,female,trial,2017_May_27_1646,
,,0.23,"[6.75, 0]",/sounds/legit/right100.wav,,,,,5,32,207,16,,,,,,,,,,,,,,,right,0.119629859924,,,,,participant10,22,60.0647575459,female,trial,2017_May_27_1646,
,,0.49,"[-6.75, 0]",/sounds/legit/left100.wav,,,,,5,33,208,33,,,,,,,,,,,,,,,left,0.436100959778,,,,,participant10,22,60.0647575459,female,trial,2017_May_27_1646,
,,0.1,"[-4.5, 0]",/sounds/legit/left70.wav,,,,,5,34,209,25,,,,,,,,,,,,,,,left,0.435571193695,,,,,participant10,22,60.0647575459,female,trial,2017_May_27_1646,
,,0.36,"[6.75, 0]",/sounds/legit/right100.wav,,,,,6,0,210,17,,,,,,,,,,,,,,,right,0.400949954987,,,,,participant10,22,60.0647575459,female,trial,2017_May_27_1646,
,,0.49,"[-4.5, 0]",/sounds/legit/left70.wav,,,,,6,1,211,28,,,,,,,,,,,,,,,left,0.502063989639,,,,,participant10,22,60.0647575459,female,trial,2017_May_27_1646,
,,0.62,"[4.5, 0]",/sounds/legit/right70.wav,,,,,6,2,212,14,,,,,,,,,,,,,,,right,0.135236024857,,,,,participant10,22,60.0647575459,female,trial,2017_May_27_1646,
,,0.1,"[4.5, 0]",/sounds/legit/right70.wav,,,,,6,3,213,10,,,,,,,,,,,,,,,right,5.50509905815,,,,,participant10,22,60.0647575459,female,trial,2017_May_27_1646,
,,0.23,"[0, 0]",/sounds/legit/equal.wav,,,,,6,4,214,1,,,,,,,,,,,,,,,right,0.618473052979,,,,,participant10,22,60.0647575459,female,trial,2017_May_27_1646,
,,0.36,"[-6.75, 0]",/sounds/legit/left100.wav,,,,,6,5,215,32,,,,,,,,,,,,,,,left,0.268661975861,,,,,participant10,22,60.0647575459,female,trial,2017_May_27_1646,
,,0.23,"[-6.75, 0]",/sounds/legit/left100.wav,,,,,6,6,216,31,,,,,,,,,,,,,,,left,1.33623814583,,,,,participant10,22,60.0647575459,female,trial,2017_May_27_1646,
,,0.62,"[-2.25, 0]",/sounds/legit/left35.wav,,,,,6,7,217,24,,,,,,,,,,,,,,,left,0.101467132568,,,,,participant10,22,60.0647575459,female,trial,2017_May_27_1646,
,,0.36,"[0, 0]",/sounds/legit/equal.wav,,,,,6,8,218,2,,,,,,,,,,,,,,,left,0.619283914566,,,,,participant10,22,60.0647575459,female,trial,2017_May_27_1646,
,,0.36,"[-2.25, 0]",/sounds/legit/left35.wav,,,,,6,9,219,22,,,,,,,,,,,,,,,left,1.31970381737,,,,,participant10,22,60.0647575459,female,trial,2017_May_27_1646,
,,0.62,"[-6.75, 0]",/sounds/legit/left100.wav,,,,,6,10,220,34,,,,,,,,,,,,,,,left,0.317615032196,,,,,participant10,22,60.0647575459,female,trial,2017_May_27_1646,
,,0.1,"[6.75, 0]",/sounds/legit/right100.wav,,,,,6,11,221,15,,,,,,,,,,,,,,,right,0.00160217285156,,,,,participant10,22,60.0647575459,female,trial,2017_May_27_1646,
,,0.36,"[-4.5, 0]",/sounds/legit/left70.wav,,,,,6,12,222,27,,,,,,,,,,,,,,,left,0.952177047729,,,,,participant10,22,60.0647575459,female,trial,2017_May_27_1646,
,,0.1,"[-4.5, 0]",/sounds/legit/left70.wav,,,,,6,13,223,25,,,,,,,,,,,,,,,left,0.0350408554077,,,,,participant10,22,60.0647575459,female,trial,2017_May_27_1646,
,,0.23,"[-2.25, 0]",/sounds/legit/left35.wav,,,,,6,14,224,21,,,,,,,,,,,,,,,left,0.217904090881,,,,,participant10,22,60.0647575459,female,trial,2017_May_27_1646,
,,0.49,"[-2.25, 0]",/sounds/legit/left35.wav,,,,,6,15,225,23,,,,,,,,,,,,,,,left,0.00170803070068,,,,,participant10,22,60.0647575459,female,trial,2017_May_27_1646,
,,0.62,"[6.75, 0]",/sounds/legit/right100.wav,,,,,6,16,226,19,,,,,,,,,,,,,,,right,0.00165700912476,,,,,participant10,22,60.0647575459,female,trial,2017_May_27_1646,
,,0.1,"[-2.25, 0]",/sounds/legit/left35.wav,,,,,6,17,227,20,,,,,,,,,,,,,,,left,0.351641893387,,,,,participant10,22,60.0647575459,female,trial,2017_May_27_1646,
,,0.62,"[2.25, 0]",/sounds/legit/right35.wav,,,,,6,18,228,9,,,,,,,,,,,,,,,right,2.25263690948,,,,,participant10,22,60.0647575459,female,trial,2017_May_27_1646,
,,0.49,"[6.75, 0]",/sounds/legit/right100.wav,,,,,6,19,229,18,,,,,,,,,,,,,,,right,0.601159095764,,,,,participant10,22,60.0647575459,female,trial,2017_May_27_1646,
,,0.62,"[-4.5, 0]",/sounds/legit/left70.wav,,,,,6,20,230,29,,,,,,,,,,,,,,,left,2.15256404877,,,,,participant10,22,60.0647575459,female,trial,2017_May_27_1646,
,,0.49,"[2.25, 0]",/sounds/legit/right35.wav,,,,,6,21,231,8,,,,,,,,,,,,,,,right,2.46996283531,,,,,participant10,22,60.0647575459,female,trial,2017_May_27_1646,
,,0.23,"[6.75, 0]",/sounds/legit/right100.wav,,,,,6,22,232,16,,,,,,,,,,,,,,,right,2.65332603455,,,,,participant10,22,60.0647575459,female,trial,2017_May_27_1646,
,,0.62,"[0, 0]",/sounds/legit/equal.wav,,,,,6,23,233,4,,,,,,,,,,,,,,,right,0.618367195129,,,,,participant10,22,60.0647575459,female,trial,2017_May_27_1646,
,,0.23,"[-4.5, 0]",/sounds/legit/left70.wav,,,,,6,24,234,26,,,,,,,,,,,,,,,left,0.418684005737,,,,,participant10,22,60.0647575459,female,trial,2017_May_27_1646,
,,0.1,"[-6.75, 0]",/sounds/legit/left100.wav,,,,,6,25,235,30,,,,,,,,,,,,,,,left,0.401437044144,,,,,participant10,22,60.0647575459,female,trial,2017_May_27_1646,
,,0.23,"[2.25, 0]",/sounds/legit/right35.wav,,,,,6,26,236,6,,,,,,,,,,,,,,,right,2.47027587891,,,,,participant10,22,60.0647575459,female,trial,2017_May_27_1646,
,,0.1,"[0, 0]",/sounds/legit/equal.wav,,,,,6,27,237,0,,,,,,,,,,,,,,,right,0.43464589119,,,,,participant10,22,60.0647575459,female,trial,2017_May_27_1646,
,,0.49,"[-6.75, 0]",/sounds/legit/left100.wav,,,,,6,28,238,33,,,,,,,,,,,,,,,left,0.0342059135437,,,,,participant10,22,60.0647575459,female,trial,2017_May_27_1646,
,,0.1,"[2.25, 0]",/sounds/legit/right35.wav,,,,,6,29,239,5,,,,,,,,,,,,,,,right,3.23688006401,,,,,participant10,22,60.0647575459,female,trial,2017_May_27_1646,
,,0.49,"[0, 0]",/sounds/legit/equal.wav,,,,,6,30,240,3,,,,,,,,,,,,,,,right,0.535480976105,,,,,participant10,22,60.0647575459,female,trial,2017_May_27_1646,
,,0.36,"[4.5, 0]",/sounds/legit/right70.wav,,,,,6,31,241,12,,,,,,,,,,,,,,,right,0.0350079536438,,,,,participant10,22,60.0647575459,female,trial,2017_May_27_1646,
,,0.49,"[4.5, 0]",/sounds/legit/right70.wav,,,,,6,32,242,13,,,,,,,,,,,,,,,right,1.96949291229,,,,,participant10,22,60.0647575459,female,trial,2017_May_27_1646,
,,0.36,"[2.25, 0]",/sounds/legit/right35.wav,,,,,6,33,243,7,,,,,,,,,,,,,,,right,0.885363101959,,,,,participant10,22,60.0647575459,female,trial,2017_May_27_1646,
,,0.23,"[4.5, 0]",/sounds/legit/right70.wav,,,,,6,34,244,11,,,,,,,,,,,,,,,right,1.41940712929,,,,,participant10,22,60.0647575459,female,trial,2017_May_27_1646,
,,0.62,"[4.5, 0]",/sounds/legit/right70.wav,,,,,7,0,245,14,,,,,,,,,,,,,,,right,0.185178995132,,,,,participant10,22,60.0647575459,female,trial,2017_May_27_1646,
,,0.62,"[0, 0]",/sounds/legit/equal.wav,,,,,7,1,246,4,,,,,,,,,,,,,,,left,1.16923189163,,,,,participant10,22,60.0647575459,female,trial,2017_May_27_1646,
,,0.49,"[-4.5, 0]",/sounds/legit/left70.wav,,,,,7,2,247,28,,,,,,,,,,,,,,,left,0.651625156403,,,,,participant10,22,60.0647575459,female,trial,2017_May_27_1646,
,,0.36,"[-4.5, 0]",/sounds/legit/left70.wav,,,,,7,3,248,27,,,,,,,,,,,,,,,left,0.868501901627,,,,,participant10,22,60.0647575459,female,trial,2017_May_27_1646,
,,0.23,"[-6.75, 0]",/sounds/legit/left100.wav,,,,,7,4,249,31,,,,,,,,,,,,,,,left,0.33491897583,,,,,participant10,22,60.0647575459,female,trial,2017_May_27_1646,
,,0.23,"[-4.5, 0]",/sounds/legit/left70.wav,,,,,7,5,250,26,,,,,,,,,,,,,,,left,0.284842014313,,,,,participant10,22,60.0647575459,female,trial,2017_May_27_1646,
,,0.1,"[6.75, 0]",/sounds/legit/right100.wav,,,,,7,6,251,15,,,,,,,,,,,,,,,right,0.235278844833,,,,,participant10,22,60.0647575459,female,trial,2017_May_27_1646,
,,0.62,"[-2.25, 0]",/sounds/legit/left35.wav,,,,,7,7,252,24,,,,,,,,,,,,,,,left,0.518929958344,,,,,participant10,22,60.0647575459,female,trial,2017_May_27_1646,
,,0.23,"[0, 0]",/sounds/legit/equal.wav,,,,,7,8,253,1,,,,,,,,,,,,,,,left,0.101204156876,,,,,participant10,22,60.0647575459,female,trial,2017_May_27_1646,
,,0.1,"[2.25, 0]",/sounds/legit/right35.wav,,,,,7,9,254,5,,,,,,,,,,,,,,,right,0.0855820178986,,,,,participant10,22,60.0647575459,female,trial,2017_May_27_1646,
,,0.49,"[2.25, 0]",/sounds/legit/right35.wav,,,,,7,10,255,8,,,,,,,,,,,,,,,right,0.351997852325,,,,,participant10,22,60.0647575459,female,trial,2017_May_27_1646,
,,0.1,"[-2.25, 0]",/sounds/legit/left35.wav,,,,,7,11,256,20,,,,,,,,,,,,,,,left,0.151763916016,,,,,participant10,22,60.0647575459,female,trial,2017_May_27_1646,
,,0.23,"[6.75, 0]",/sounds/legit/right100.wav,,,,,7,12,257,16,,,,,,,,,,,,,,,right,2.55296206474,,,,,participant10,22,60.0647575459,female,trial,2017_May_27_1646,
,,0.49,"[6.75, 0]",/sounds/legit/right100.wav,,,,,7,13,258,18,,,,,,,,,,,,,,,right,2.95360398293,,,,,participant10,22,60.0647575459,female,trial,2017_May_27_1646,
,,0.49,"[-2.25, 0]",/sounds/legit/left35.wav,,,,,7,14,259,23,,,,,,,,,,,,,,,left,0.418699026108,,,,,participant10,22,60.0647575459,female,trial,2017_May_27_1646,
,,0.49,"[-6.75, 0]",/sounds/legit/left100.wav,,,,,7,15,260,33,,,,,,,,,,,,,,,left,0.468545913696,,,,,participant10,22,60.0647575459,female,trial,2017_May_27_1646,
,,0.36,"[6.75, 0]",/sounds/legit/right100.wav,,,,,7,16,261,17,,,,,,,,,,,,,,,right,0.551784992218,,,,,participant10,22,60.0647575459,female,trial,2017_May_27_1646,
,,0.36,"[0, 0]",/sounds/legit/equal.wav,,,,,7,17,262,2,,,,,,,,,,,,,,,right,0.285238027573,,,,,participant10,22,60.0647575459,female,trial,2017_May_27_1646,
,,0.36,"[-6.75, 0]",/sounds/legit/left100.wav,,,,,7,18,263,32,,,,,,,,,,,,,,,left,1.50211405754,,,,,participant10,22,60.0647575459,female,trial,2017_May_27_1646,
,,0.1,"[0, 0]",/sounds/legit/equal.wav,,,,,7,19,264,0,,,,,,,,,,,,,,,left,1.41975712776,,,,,participant10,22,60.0647575459,female,trial,2017_May_27_1646,
,,0.49,"[4.5, 0]",/sounds/legit/right70.wav,,,,,7,20,265,13,,,,,,,,,,,,,,,right,0.0838589668274,,,,,participant10,22,60.0647575459,female,trial,2017_May_27_1646,
,,0.36,"[-2.25, 0]",/sounds/legit/left35.wav,,,,,7,21,266,22,,,,,,,,,,,,,,,left,0.785074949265,,,,,participant10,22,60.0647575459,female,trial,2017_May_27_1646,
,,0.49,"[0, 0]",/sounds/legit/equal.wav,,,,,7,22,267,3,,,,,,,,,,,,,,,right,1.15217089653,,,,,participant10,22,60.0647575459,female,trial,2017_May_27_1646,
,,0.62,"[-4.5, 0]",/sounds/legit/left70.wav,,,,,7,23,268,29,,,,,,,,,,,,,,,left,1.9029250145,,,,,participant10,22,60.0647575459,female,trial,2017_May_27_1646,
,,0.62,"[-6.75, 0]",/sounds/legit/left100.wav,,,,,7,24,269,34,,,,,,,,,,,,,,,left,1.3678278923,,,,,participant10,22,60.0647575459,female,trial,2017_May_27_1646,
,,0.23,"[2.25, 0]",/sounds/legit/right35.wav,,,,,7,25,270,6,,,,,,,,,,,,,,,right,0.301475048065,,,,,participant10,22,60.0647575459,female,trial,2017_May_27_1646,
,,0.1,"[-4.5, 0]",/sounds/legit/left70.wav,,,,,7,26,271,25,,,,,,,,,,,,,,,left,1.66933917999,,,,,participant10,22,60.0647575459,female,trial,2017_May_27_1646,
,,0.23,"[-2.25, 0]",/sounds/legit/left35.wav,,,,,7,27,272,21,,,,,,,,,,,,,,,left,0.685535907745,,,,,participant10,22,60.0647575459,female,trial,2017_May_27_1646,
,,0.62,"[6.75, 0]",/sounds/legit/right100.wav,,,,,7,28,273,19,,,,,,,,,,,,,,,right,0.368119955063,,,,,participant10,22,60.0647575459,female,trial,2017_May_27_1646,
,,0.1,"[4.5, 0]",/sounds/legit/right70.wav,,,,,7,29,274,10,,,,,,,,,,,,,,,right,0.968957185745,,,,,participant10,22,60.0647575459,female,trial,2017_May_27_1646,
,,0.62,"[2.25, 0]",/sounds/legit/right35.wav,,,,,7,30,275,9,,,,,,,,,,,,,,,right,0.418645143509,,,,,participant10,22,60.0647575459,female,trial,2017_May_27_1646,
,,0.23,"[4.5, 0]",/sounds/legit/right70.wav,,,,,7,31,276,11,,,,,,,,,,,,,,,right,1.01906704903,,,,,participant10,22,60.0647575459,female,trial,2017_May_27_1646,
,,0.36,"[4.5, 0]",/sounds/legit/right70.wav,,,,,7,32,277,12,,,,,,,,,,,,,,,right,1.50131607056,,,,,participant10,22,60.0647575459,female,trial,2017_May_27_1646,
,,0.36,"[2.25, 0]",/sounds/legit/right35.wav,,,,,7,33,278,7,,,,,,,,,,,,,,,right,1.58589100838,,,,,participant10,22,60.0647575459,female,trial,2017_May_27_1646,
,,0.1,"[-6.75, 0]",/sounds/legit/left100.wav,,,,,7,34,279,30,,,,,,,,,,,,,,,left,0.384876012802,,,,,participant10,22,60.0647575459,female,trial,2017_May_27_1646,
,,0.62,"[-6.75, 0]",/sounds/legit/left100.wav,,,,,8,0,280,34,,,,,,,,,,,,,,,left,0.435055971146,,,,,participant10,22,60.0647575459,female,trial,2017_May_27_1646,
,,0.49,"[4.5, 0]",/sounds/legit/right70.wav,,,,,8,1,281,13,,,,,,,,,,,,,,,right,0.817678928375,,,,,participant10,22,60.0647575459,female,trial,2017_May_27_1646,
,,0.1,"[6.75, 0]",/sounds/legit/right100.wav,,,,,8,2,282,15,,,,,,,,,,,,,,,right,0.551762104034,,,,,participant10,22,60.0647575459,female,trial,2017_May_27_1646,
,,0.1,"[0, 0]",/sounds/legit/equal.wav,,,,,8,3,283,0,,,,,,,,,,,,,,,right,2.56931591034,,,,,participant10,22,60.0647575459,female,trial,2017_May_27_1646,
,,0.49,"[-6.75, 0]",/sounds/legit/left100.wav,,,,,8,4,284,33,,,,,,,,,,,,,,,right,0.934861183167,,,,,participant10,22,60.0647575459,female,trial,2017_May_27_1646,
,,0.49,"[-4.5, 0]",/sounds/legit/left70.wav,,,,,8,5,285,28,,,,,,,,,,,,,,,left,2.35294413567,,,,,participant10,22,60.0647575459,female,trial,2017_May_27_1646,
,,0.23,"[-6.75, 0]",/sounds/legit/left100.wav,,,,,8,6,286,31,,,,,,,,,,,,,,,left,2.85354399681,,,,,participant10,22,60.0647575459,female,trial,2017_May_27_1646,
,,0.49,"[6.75, 0]",/sounds/legit/right100.wav,,,,,8,7,287,18,,,,,,,,,,,,,,,right,0.736186981201,,,,,participant10,22,60.0647575459,female,trial,2017_May_27_1646,
,,0.62,"[4.5, 0]",/sounds/legit/right70.wav,,,,,8,8,288,14,,,,,,,,,,,,,,,right,0.302607774734,,,,,participant10,22,60.0647575459,female,trial,2017_May_27_1646,
,,0.1,"[-4.5, 0]",/sounds/legit/left70.wav,,,,,8,9,289,25,,,,,,,,,,,,,,,left,1.05226898193,,,,,participant10,22,60.0647575459,female,trial,2017_May_27_1646,
,,0.36,"[0, 0]",/sounds/legit/equal.wav,,,,,8,10,290,2,,,,,,,,,,,,,,,right,1.23616409302,,,,,participant10,22,60.0647575459,female,trial,2017_May_27_1646,
,,0.49,"[-2.25, 0]",/sounds/legit/left35.wav,,,,,8,11,291,23,,,,,,,,,,,,,,,left,0.284785032272,,,,,participant10,22,60.0647575459,female,trial,2017_May_27_1646,
,,0.62,"[6.75, 0]",/sounds/legit/right100.wav,,,,,8,12,292,19,,,,,,,,,,,,,,,right,0.952444076538,,,,,participant10,22,60.0647575459,female,trial,2017_May_27_1646,
,,0.36,"[4.5, 0]",/sounds/legit/right70.wav,,,,,8,13,293,12,,,,,,,,,,,,,,,right,0.618245124817,,,,,participant10,22,60.0647575459,female,trial,2017_May_27_1646,
,,0.62,"[-4.5, 0]",/sounds/legit/left70.wav,,,,,8,14,294,29,,,,,,,,,,,,,,,left,1.13531494141,,,,,participant10,22,60.0647575459,female,trial,2017_May_27_1646,
,,0.36,"[-2.25, 0]",/sounds/legit/left35.wav,,,,,8,15,295,22,,,,,,,,,,,,,,,left,0.999707937241,,,,,participant10,22,60.0647575459,female,trial,2017_May_27_1646,
,,0.1,"[4.5, 0]",/sounds/legit/right70.wav,,,,,8,16,296,10,,,,,,,,,,,,,,,right,0.901657819748,,,,,participant10,22,60.0647575459,female,trial,2017_May_27_1646,
,,0.49,"[0, 0]",/sounds/legit/equal.wav,,,,,8,17,297,3,,,,,,,,,,,,,,,right,0.917173147202,,,,,participant10,22,60.0647575459,female,trial,2017_May_27_1646,
,,0.62,"[2.25, 0]",/sounds/legit/right35.wav,,,,,8,18,298,9,,,,,,,,,,,,,,,right,3.90360593796,,,,,participant10,22,60.0647575459,female,trial,2017_May_27_1646,
,,0.62,"[-2.25, 0]",/sounds/legit/left35.wav,,,,,8,19,299,24,,,,,,,,,,,,,,,right,1.53633713722,,,,,participant10,22,60.0647575459,female,trial,2017_May_27_1646,
,,0.1,"[-2.25, 0]",/sounds/legit/left35.wav,,,,,8,20,300,20,,,,,,,,,,,,,,,left,1.31854820251,,,,,participant10,22,60.0647575459,female,trial,2017_May_27_1646,
,,0.23,"[2.25, 0]",/sounds/legit/right35.wav,,,,,8,21,301,6,,,,,,,,,,,,,,,left,1.2687599659,,,,,participant10,22,60.0647575459,female,trial,2017_May_27_1646,
,,0.36,"[2.25, 0]",/sounds/legit/right35.wav,,,,,8,22,302,7,,,,,,,,,,,,,,,right,3.43735194206,,,,,participant10,22,60.0647575459,female,trial,2017_May_27_1646,
,,0.62,"[0, 0]",/sounds/legit/equal.wav,,,,,8,23,303,4,,,,,,,,,,,,,,,right,0.969481945038,,,,,participant10,22,60.0647575459,female,trial,2017_May_27_1646,
,,0.23,"[-4.5, 0]",/sounds/legit/left70.wav,,,,,8,24,304,26,,,,,,,,,,,,,,,left,0.467574834824,,,,,participant10,22,60.0647575459,female,trial,2017_May_27_1646,
,,0.49,"[2.25, 0]",/sounds/legit/right35.wav,,,,,8,25,305,8,,,,,,,,,,,,,,,right,0.468489170074,,,,,participant10,22,60.0647575459,female,trial,2017_May_27_1646,
,,0.36,"[-4.5, 0]",/sounds/legit/left70.wav,,,,,8,26,306,27,,,,,,,,,,,,,,,left,0.368626832962,,,,,participant10,22,60.0647575459,female,trial,2017_May_27_1646,
,,0.23,"[6.75, 0]",/sounds/legit/right100.wav,,,,,8,27,307,16,,,,,,,,,,,,,,,right,0.21673989296,,,,,participant10,22,60.0647575459,female,trial,2017_May_27_1646,
,,0.1,"[2.25, 0]",/sounds/legit/right35.wav,,,,,8,28,308,5,,,,,,,,,,,,,,,right,0.367514133453,,,,,participant10,22,60.0647575459,female,trial,2017_May_27_1646,
,,0.23,"[0, 0]",/sounds/legit/equal.wav,,,,,8,29,309,1,,,,,,,,,,,,,,,right,0.368659973145,,,,,participant10,22,60.0647575459,female,trial,2017_May_27_1646,
,,0.23,"[-2.25, 0]",/sounds/legit/left35.wav,,,,,8,30,310,21,,,,,,,,,,,,,,,left,0.984422206879,,,,,participant10,22,60.0647575459,female,trial,2017_May_27_1646,
,,0.1,"[-6.75, 0]",/sounds/legit/left100.wav,,,,,8,31,311,30,,,,,,,,,,,,,,,left,1.10199689865,,,,,participant10,22,60.0647575459,female,trial,2017_May_27_1646,
,,0.23,"[4.5, 0]",/sounds/legit/right70.wav,,,,,8,32,312,11,,,,,,,,,,,,,,,right,0.61912894249,,,,,participant10,22,60.0647575459,female,trial,2017_May_27_1646,
,,0.36,"[6.75, 0]",/sounds/legit/right100.wav,,,,,8,33,313,17,,,,,,,,,,,,,,,right,0.268347024918,,,,,participant10,22,60.0647575459,female,trial,2017_May_27_1646,
,,0.36,"[-6.75, 0]",/sounds/legit/left100.wav,,,,,8,34,314,32,,,,,,,,,,,,,,,left,1.66832995415,,,,,participant10,22,60.0647575459,female,trial,2017_May_27_1646,
,,0.23,"[-6.75, 0]",/sounds/legit/left100.wav,,,,,9,0,315,31,,,,,,,,,,,,,,,left,0.800606012344,,,,,participant10,22,60.0647575459,female,trial,2017_May_27_1646,
,,0.23,"[-2.25, 0]",/sounds/legit/left35.wav,,,,,9,1,316,21,,,,,,,,,,,,,,,left,1.01923298836,,,,,participant10,22,60.0647575459,female,trial,2017_May_27_1646,
,,0.49,"[-2.25, 0]",/sounds/legit/left35.wav,,,,,9,2,317,23,,,,,,,,,,,,,,,left,0.88453912735,,,,,participant10,22,60.0647575459,female,trial,2017_May_27_1646,
,,0.1,"[-6.75, 0]",/sounds/legit/left100.wav,,,,,9,3,318,30,,,,,,,,,,,,,,,left,0.785650968552,,,,,participant10,22,60.0647575459,female,trial,2017_May_27_1646,
,,0.36,"[4.5, 0]",/sounds/legit/right70.wav,,,,,9,4,319,12,,,,,,,,,,,,,,,right,0.651630878448,,,,,participant10,22,60.0647575459,female,trial,2017_May_27_1646,
,,0.49,"[-6.75, 0]",/sounds/legit/left100.wav,,,,,9,5,320,33,,,,,,,,,,,,,,,left,0.43540096283,,,,,participant10,22,60.0647575459,female,trial,2017_May_27_1646,
,,0.1,"[2.25, 0]",/sounds/legit/right35.wav,,,,,9,6,321,5,,,,,,,,,,,,,,,right,0.252558946609,,,,,participant10,22,60.0647575459,female,trial,2017_May_27_1646,
,,0.36,"[-4.5, 0]",/sounds/legit/left70.wav,,,,,9,7,322,27,,,,,,,,,,,,,,,left,0.934650182724,,,,,participant10,22,60.0647575459,female,trial,2017_May_27_1646,
,,0.36,"[6.75, 0]",/sounds/legit/right100.wav,,,,,9,8,323,17,,,,,,,,,,,,,,,right,0.6680560112,,,,,participant10,22,60.0647575459,female,trial,2017_May_27_1646,
,,0.23,"[2.25, 0]",/sounds/legit/right35.wav,,,,,9,9,324,6,,,,,,,,,,,,,,,right,0.38533115387,,,,,participant10,22,60.0647575459,female,trial,2017_May_27_1646,
,,0.62,"[4.5, 0]",/sounds/legit/right70.wav,,,,,9,10,325,14,,,,,,,,,,,,,,,right,0.185742139816,,,,,participant10,22,60.0647575459,female,trial,2017_May_27_1646,
,,0.49,"[4.5, 0]",/sounds/legit/right70.wav,,,,,9,11,326,13,,,,,,,,,,,,,,,right,0.2014939785,,,,,participant10,22,60.0647575459,female,trial,2017_May_27_1646,
,,0.23,"[-4.5, 0]",/sounds/legit/left70.wav,,,,,9,12,327,26,,,,,,,,,,,,,,,left,1.08524298668,,,,,participant10,22,60.0647575459,female,trial,2017_May_27_1646,
,,0.23,"[0, 0]",/sounds/legit/equal.wav,,,,,9,13,328,1,,,,,,,,,,,,,,,right,0.634457826614,,,,,participant10,22,60.0647575459,female,trial,2017_May_27_1646,
,,0.62,"[0, 0]",/sounds/legit/equal.wav,,,,,9,14,329,4,,,,,,,,,,,,,,,right,0.285148859024,,,,,participant10,22,60.0647575459,female,trial,2017_May_27_1646,
,,0.1,"[6.75, 0]",/sounds/legit/right100.wav,,,,,9,15,330,15,,,,,,,,,,,,,,,right,1.2686548233,,,,,participant10,22,60.0647575459,female,trial,2017_May_27_1646,
,,0.1,"[-4.5, 0]",/sounds/legit/left70.wav,,,,,9,16,331,25,,,,,,,,,,,,,,,left,0.151224851608,,,,,participant10,22,60.0647575459,female,trial,2017_May_27_1646,
,,0.62,"[-4.5, 0]",/sounds/legit/left70.wav,,,,,9,17,332,29,,,,,,,,,,,,,,,left,0.118072032928,,,,,participant10,22,60.0647575459,female,trial,2017_May_27_1646,
,,0.23,"[4.5, 0]",/sounds/legit/right70.wav,,,,,9,18,333,11,,,,,,,,,,,,,,,right,1.01984000206,,,,,participant10,22,60.0647575459,female,trial,2017_May_27_1646,
,,0.36,"[0, 0]",/sounds/legit/equal.wav,,,,,9,19,334,2,,,,,,,,,,,,,,,right,0.935559034348,,,,,participant10,22,60.0647575459,female,trial,2017_May_27_1646,
,,0.36,"[2.25, 0]",/sounds/legit/right35.wav,,,,,9,20,335,7,,,,,,,,,,,,,,,right,0.584949016571,,,,,participant10,22,60.0647575459,female,trial,2017_May_27_1646,
,,0.1,"[4.5, 0]",/sounds/legit/right70.wav,,,,,9,21,336,10,,,,,,,,,,,,,,,left,2.43671417236,,,,,participant10,22,60.0647575459,female,trial,2017_May_27_1646,
,,0.49,"[2.25, 0]",/sounds/legit/right35.wav,,,,,9,22,337,8,,,,,,,,,,,,,,,right,0.334651947021,,,,,participant10,22,60.0647575459,female,trial,2017_May_27_1646,
,,0.1,"[-2.25, 0]",/sounds/legit/left35.wav,,,,,9,23,338,20,,,,,,,,,,,,,,,right,0.369236946106,,,,,participant10,22,60.0647575459,female,trial,2017_May_27_1646,
,,0.62,"[-6.75, 0]",/sounds/legit/left100.wav,,,,,9,24,339,34,,,,,,,,,,,,,,,right,0.752287149429,,,,,participant10,22,60.0647575459,female,trial,2017_May_27_1646,
,,0.62,"[2.25, 0]",/sounds/legit/right35.wav,,,,,9,25,340,9,,,,,,,,,,,,,,,right,0.283656835556,,,,,participant10,22,60.0647575459,female,trial,2017_May_27_1646,
,,0.62,"[6.75, 0]",/sounds/legit/right100.wav,,,,,9,26,341,19,,,,,,,,,,,,,,,right,1.88557195663,,,,,participant10,22,60.0647575459,female,trial,2017_May_27_1646,
,,0.23,"[6.75, 0]",/sounds/legit/right100.wav,,,,,9,27,342,16,,,,,,,,,,,,,,,right,0.668473005295,,,,,participant10,22,60.0647575459,female,trial,2017_May_27_1646,
,,0.49,"[0, 0]",/sounds/legit/equal.wav,,,,,9,28,343,3,,,,,,,,,,,,,,,right,0.20165681839,,,,,participant10,22,60.0647575459,female,trial,2017_May_27_1646,
,,0.62,"[-2.25, 0]",/sounds/legit/left35.wav,,,,,9,29,344,24,,,,,,,,,,,,,,,left,0.152036905289,,,,,participant10,22,60.0647575459,female,trial,2017_May_27_1646,
,,0.36,"[-6.75, 0]",/sounds/legit/left100.wav,,,,,9,30,345,32,,,,,,,,,,,,,,,left,0.0850338935852,,,,,participant10,22,60.0647575459,female,trial,2017_May_27_1646,
,,0.49,"[6.75, 0]",/sounds/legit/right100.wav,,,,,9,31,346,18,,,,,,,,,,,,,,,right,0.267931938171,,,,,participant10,22,60.0647575459,female,trial,2017_May_27_1646,
,,0.49,"[-4.5, 0]",/sounds/legit/left70.wav,,,,,9,32,347,28,,,,,,,,,,,,,,,left,0.518233060837,,,,,participant10,22,60.0647575459,female,trial,2017_May_27_1646,
,,0.1,"[0, 0]",/sounds/legit/equal.wav,,,,,9,33,348,0,,,,,,,,,,,,,,,left,0.252104997635,,,,,participant10,22,60.0647575459,female,trial,2017_May_27_1646,
,,0.36,"[-2.25, 0]",/sounds/legit/left35.wav,,,,,9,34,349,22,,,,,,,,,,,,,,,left,0.184474945068,,,,,participant10,22,60.0647575459,female,trial,2017_May_27_1646,
,,,,,,,,,,,,,,,,,,,,,,,,,,,,,space,160.56964016,,,participant10,22,60.0647575459,female,trial,2017_May_27_1646,
,,0.49,"[0, 0]",/sounds/legit/equal.wav,,,,,,,,,0,0,0,3,,,,,,,,,,,,,,,right,1.53478193283,participant10,22,60.0647575459,female,trial,2017_May_27_1646,
,,0.62,"[2.25, 0]",/sounds/legit/right35.wav,,,,,,,,,0,1,1,9,,,,,,,,,,,,,,,right,0.0348429679871,participant10,22,60.0647575459,female,trial,2017_May_27_1646,
,,0.62,"[-4.5, 0]",/sounds/legit/left70.wav,,,,,,,,,0,2,2,29,,,,,,,,,,,,,,,left,0.0683760643005,participant10,22,60.0647575459,female,trial,2017_May_27_1646,
,,0.36,"[-4.5, 0]",/sounds/legit/left70.wav,,,,,,,,,0,3,3,27,,,,,,,,,,,,,,,left,0.335011005402,participant10,22,60.0647575459,female,trial,2017_May_27_1646,
,,0.36,"[6.75, 0]",/sounds/legit/right100.wav,,,,,,,,,0,4,4,17,,,,,,,,,,,,,,,right,0.117485046387,participant10,22,60.0647575459,female,trial,2017_May_27_1646,
,,0.62,"[6.75, 0]",/sounds/legit/right100.wav,,,,,,,,,0,5,5,19,,,,,,,,,,,,,,,right,0.117348909378,participant10,22,60.0647575459,female,trial,2017_May_27_1646,
,,0.23,"[4.5, 0]",/sounds/legit/right70.wav,,,,,,,,,0,6,6,11,,,,,,,,,,,,,,,left,0.801462888718,participant10,22,60.0647575459,female,trial,2017_May_27_1646,
,,0.23,"[-2.25, 0]",/sounds/legit/left35.wav,,,,,,,,,0,7,7,21,,,,,,,,,,,,,,,left,0.169049024582,participant10,22,60.0647575459,female,trial,2017_May_27_1646,
,,0.23,"[-2.25, 0]",/sounds/legit/left35.wav,,,,,,,,,0,8,8,21,,,,,,,,,,,,,,,left,0.184427022934,participant10,22,60.0647575459,female,trial,2017_May_27_1646,
,,0.49,"[6.75, 0]",/sounds/legit/right100.wav,,,,,,,,,0,9,9,18,,,,,,,,,,,,,,,right,0.118975162506,participant10,22,60.0647575459,female,trial,2017_May_27_1646,
,,0.1,"[-6.75, 0]",/sounds/legit/left100.wav,,,,,,,,,0,10,10,30,,,,,,,,,,,,,,,left,0.151463985443,participant10,22,60.0647575459,female,trial,2017_May_27_1646,
,,0.23,"[-2.25, 0]",/sounds/legit/left35.wav,,,,,,,,,0,11,11,21,,,,,,,,,,,,,,,left,0.0513031482697,participant10,22,60.0647575459,female,trial,2017_May_27_1646,
,,0.1,"[4.5, 0]",/sounds/legit/right70.wav,,,,,,,,,0,12,12,10,,,,,,,,,,,,,,,right,0.0685930252075,participant10,22,60.0647575459,female,trial,2017_May_27_1646,
,,0.23,"[2.25, 0]",/sounds/legit/right35.wav,,,,,,,,,0,13,13,6,,,,,,,,,,,,,,,right,0.0679471492767,participant10,22,60.0647575459,female,trial,2017_May_27_1646,
,,0.62,"[6.75, 0]",/sounds/legit/right100.wav,,,,,,,,,0,14,14,19,,,,,,,,,,,,,,,right,0.0511441230774,participant10,22,60.0647575459,female,trial,2017_May_27_1646,
,,0.23,"[4.5, 0]",/sounds/legit/right70.wav,,,,,,,,,0,15,15,11,,,,,,,,,,,,,,,right,0.752717018127,participant10,22,60.0647575459,female,trial,2017_May_27_1646,
,,0.36,"[-2.25, 0]",/sounds/legit/left35.wav,,,,,,,,,0,16,16,22,,,,,,,,,,,,,,,left,0.0685279369354,participant10,22,60.0647575459,female,trial,2017_May_27_1646,
,,0.23,"[6.75, 0]",/sounds/legit/right100.wav,,,,,,,,,0,17,17,16,,,,,,,,,,,,,,,right,0.0518460273743,participant10,22,60.0647575459,female,trial,2017_May_27_1646,
,,0.62,"[-6.75, 0]",/sounds/legit/left100.wav,,,,,,,,,0,18,18,34,,,,,,,,,,,,,,,left,0.0513288974762,participant10,22,60.0647575459,female,trial,2017_May_27_1646,
,,0.62,"[4.5, 0]",/sounds/legit/right70.wav,,,,,,,,,0,19,19,14,,,,,,,,,,,,,,,left,0.33497095108,participant10,22,60.0647575459,female,trial,2017_May_27_1646,
,,0.62,"[6.75, 0]",/sounds/legit/right100.wav,,,,,,,,,0,20,20,19,,,,,,,,,,,,,,,right,0.735939025879,participant10,22,60.0647575459,female,trial,2017_May_27_1646,
,,0.1,"[4.5, 0]",/sounds/legit/right70.wav,,,,,,,,,0,21,21,10,,,,,,,,,,,,,,,left,0.886031866074,participant10,22,60.0647575459,female,trial,2017_May_27_1646,
,,0.1,"[-4.5, 0]",/sounds/legit/left70.wav,,,,,,,,,0,22,22,25,,,,,,,,,,,,,,,left,0.168715000153,participant10,22,60.0647575459,female,trial,2017_May_27_1646,
,,0.23,"[-4.5, 0]",/sounds/legit/left70.wav,,,,,,,,,0,23,23,26,,,,,,,,,,,,,,,left,0.068060874939,participant10,22,60.0647575459,female,trial,2017_May_27_1646,
,,0.62,"[0, 0]",/sounds/legit/equal.wav,,,,,,,,,0,24,24,4,,,,,,,,,,,,,,,left,0.134912014008,participant10,22,60.0647575459,female,trial,2017_May_27_1646,
,,0.36,"[-6.75, 0]",/sounds/legit/left100.wav,,,,,,,,,0,25,25,32,,,,,,,,,,,,,,,left,0.767814874649,participant10,22,60.0647575459,female,trial,2017_May_27_1646,
,,0.49,"[6.75, 0]",/sounds/legit/right100.wav,,,,,,,,,0,26,26,18,,,,,,,,,,,,,,,right,0.668259859085,participant10,22,60.0647575459,female,trial,2017_May_27_1646,
,,0.1,"[-4.5, 0]",/sounds/legit/left70.wav,,,,,,,,,0,27,27,25,,,,,,,,,,,,,,,left,0.0841979980469,participant10,22,60.0647575459,female,trial,2017_May_27_1646,
,,0.62,"[-6.75, 0]",/sounds/legit/left100.wav,,,,,,,,,0,28,28,34,,,,,,,,,,,,,,,left,0.183546066284,participant10,22,60.0647575459,female,trial,2017_May_27_1646,
,,0.62,"[4.5, 0]",/sounds/legit/right70.wav,,,,,,,,,0,29,29,14,,,,,,,,,,,,,,,right,0.102071046829,participant10,22,60.0647575459,female,trial,2017_May_27_1646,
,,0.23,"[-4.5, 0]",/sounds/legit/left70.wav,,,,,,,,,0,30,30,26,,,,,,,,,,,,,,,left,0.0516860485077,participant10,22,60.0647575459,female,trial,2017_May_27_1646,
,,0.23,"[0, 0]",/sounds/legit/equal.wav,,,,,,,,,0,31,31,1,,,,,,,,,,,,,,,left,0.018993139267,participant10,22,60.0647575459,female,trial,2017_May_27_1646,
,,0.36,"[-2.25, 0]",/sounds/legit/left35.wav,,,,,,,,,0,32,32,22,,,,,,,,,,,,,,,left,0.586523771286,participant10,22,60.0647575459,female,trial,2017_May_27_1646,
,,0.1,"[-6.75, 0]",/sounds/legit/left100.wav,,,,,,,,,0,33,33,30,,,,,,,,,,,,,,,left,0.118131160736,participant10,22,60.0647575459,female,trial,2017_May_27_1646,
,,0.49,"[-4.5, 0]",/sounds/legit/left70.wav,,,,,,,,,0,34,34,28,,,,,,,,,,,,,,,left,0.0854148864746,participant10,22,60.0647575459,female,trial,2017_May_27_1646,
,,0.36,"[6.75, 0]",/sounds/legit/right100.wav,,,,,,,,,1,0,35,17,,,,,,,,,,,,,,,right,0.0849549770355,participant10,22,60.0647575459,female,trial,2017_May_27_1646,
,,0.49,"[-6.75, 0]",/sounds/legit/left100.wav,,,,,,,,,1,1,36,33,,,,,,,,,,,,,,,left,0.168658018112,participant10,22,60.0647575459,female,trial,2017_May_27_1646,
,,0.1,"[4.5, 0]",/sounds/legit/right70.wav,,,,,,,,,1,2,37,10,,,,,,,,,,,,,,,right,0.0340750217438,participant10,22,60.0647575459,female,trial,2017_May_27_1646,
,,0.62,"[-6.75, 0]",/sounds/legit/left100.wav,,,,,,,,,1,3,38,34,,,,,,,,,,,,,,,left,0.151561021805,participant10,22,60.0647575459,female,trial,2017_May_27_1646,
,,0.49,"[2.25, 0]",/sounds/legit/right35.wav,,,,,,,,,1,4,39,8,,,,,,,,,,,,,,,right,0.00194501876831,participant10,22,60.0647575459,female,trial,2017_May_27_1646,
,,0.62,"[0, 0]",/sounds/legit/equal.wav,,,,,,,,,1,5,40,4,,,,,,,,,,,,,,,right,0.134584903717,participant10,22,60.0647575459,female,trial,2017_May_27_1646,
,,0.49,"[-2.25, 0]",/sounds/legit/left35.wav,,,,,,,,,1,6,41,23,,,,,,,,,,,,,,,left,0.134676933289,participant10,22,60.0647575459,female,trial,2017_May_27_1646,
,,0.62,"[-2.25, 0]",/sounds/legit/left35.wav,,,,,,,,,1,7,42,24,,,,,,,,,,,,,,,right,0.351999998093,participant10,22,60.0647575459,female,trial,2017_May_27_1646,
,,0.49,"[-4.5, 0]",/sounds/legit/left70.wav,,,,,,,,,1,8,43,28,,,,,,,,,,,,,,,left,0.0508329868317,participant10,22,60.0647575459,female,trial,2017_May_27_1646,
,,0.36,"[2.25, 0]",/sounds/legit/right35.wav,,,,,,,,,1,9,44,7,,,,,,,,,,,,,,,right,0.0178589820862,participant10,22,60.0647575459,female,trial,2017_May_27_1646,
,,0.23,"[-4.5, 0]",/sounds/legit/left70.wav,,,,,,,,,1,10,45,26,,,,,,,,,,,,,,,left,0.00168609619141,participant10,22,60.0647575459,female,trial,2017_May_27_1646,
,,0.62,"[0, 0]",/sounds/legit/equal.wav,,,,,,,,,1,11,46,4,,,,,,,,,,,,,,,right,0.13450717926,participant10,22,60.0647575459,female,trial,2017_May_27_1646,
,,0.36,"[6.75, 0]",/sounds/legit/right100.wav,,,,,,,,,1,12,47,17,,,,,,,,,,,,,,,right,0.150677204132,participant10,22,60.0647575459,female,trial,2017_May_27_1646,
,,0.23,"[6.75, 0]",/sounds/legit/right100.wav,,,,,,,,,1,13,48,16,,,,,,,,,,,,,,,right,0.768611907959,participant10,22,60.0647575459,female,trial,2017_May_27_1646,
,,0.49,"[-6.75, 0]",/sounds/legit/left100.wav,,,,,,,,,1,14,49,33,,,,,,,,,,,,,,,left,2.51723504066,participant10,22,60.0647575459,female,trial,2017_May_27_1646,
,,0.36,"[6.75, 0]",/sounds/legit/right100.wav,,,,,,,,,1,15,50,17,,,,,,,,,,,,,,,right,0.0341100692749,participant10,22,60.0647575459,female,trial,2017_May_27_1646,
,,0.62,"[-4.5, 0]",/sounds/legit/left70.wav,,,,,,,,,1,16,51,29,,,,,,,,,,,,,,,left,0.685148954391,participant10,22,60.0647575459,female,trial,2017_May_27_1646,
,,0.49,"[-2.25, 0]",/sounds/legit/left35.wav,,,,,,,,,1,17,52,23,,,,,,,,,,,,,,,right,0.152197122574,participant10,22,60.0647575459,female,trial,2017_May_27_1646,
,,0.62,"[-4.5, 0]",/sounds/legit/left70.wav,,,,,,,,,1,18,53,29,,,,,,,,,,,,,,,right,0.185298919678,participant10,22,60.0647575459,female,trial,2017_May_27_1646,
,,0.36,"[-4.5, 0]",/sounds/legit/left70.wav,,,,,,,,,1,19,54,27,,,,,,,,,,,,,,,left,0.301925182343,participant10,22,60.0647575459,female,trial,2017_May_27_1646,
,,0.49,"[-6.75, 0]",/sounds/legit/left100.wav,,,,,,,,,1,20,55,33,,,,,,,,,,,,,,,left,0.185585975647,participant10,22,60.0647575459,female,trial,2017_May_27_1646,
,,0.23,"[2.25, 0]",/sounds/legit/right35.wav,,,,,,,,,1,21,56,6,,,,,,,,,,,,,,,right,0.1853120327,participant10,22,60.0647575459,female,trial,2017_May_27_1646,
,,0.1,"[6.75, 0]",/sounds/legit/right100.wav,,,,,,,,,1,22,57,15,,,,,,,,,,,,,,,right,0.0852057933807,participant10,22,60.0647575459,female,trial,2017_May_27_1646,
,,0.62,"[4.5, 0]",/sounds/legit/right70.wav,,,,,,,,,1,23,58,14,,,,,,,,,,,,,,,right,0.0014979839325,participant10,22,60.0647575459,female,trial,2017_May_27_1646,
,,0.1,"[6.75, 0]",/sounds/legit/right100.wav,,,,,,,,,1,24,59,15,,,,,,,,,,,,,,,right,0.802057981491,participant10,22,60.0647575459,female,trial,2017_May_27_1646,
,,0.1,"[-2.25, 0]",/sounds/legit/left35.wav,,,,,,,,,1,25,60,20,,,,,,,,,,,,,,,left,0.286285161972,participant10,22,60.0647575459,female,trial,2017_May_27_1646,
,,0.36,"[-4.5, 0]",/sounds/legit/left70.wav,,,,,,,,,1,26,61,27,,,,,,,,,,,,,,,left,0.235373020172,participant10,22,60.0647575459,female,trial,2017_May_27_1646,
,,0.49,"[-6.75, 0]",/sounds/legit/left100.wav,,,,,,,,,1,27,62,33,,,,,,,,,,,,,,,left,0.284795045853,participant10,22,60.0647575459,female,trial,2017_May_27_1646,
,,0.62,"[-2.25, 0]",/sounds/legit/left35.wav,,,,,,,,,1,28,63,24,,,,,,,,,,,,,,,right,0.0183761119843,participant10,22,60.0647575459,female,trial,2017_May_27_1646,
,,0.62,"[4.5, 0]",/sounds/legit/right70.wav,,,,,,,,,1,29,64,14,,,,,,,,,,,,,,,right,0.668627977371,participant10,22,60.0647575459,female,trial,2017_May_27_1646,
,,0.49,"[4.5, 0]",/sounds/legit/right70.wav,,,,,,,,,1,30,65,13,,,,,,,,,,,,,,,right,0.785233974457,participant10,22,60.0647575459,female,trial,2017_May_27_1646,
,,0.36,"[-4.5, 0]",/sounds/legit/left70.wav,,,,,,,,,1,31,66,27,,,,,,,,,,,,,,,right,0.0345559120178,participant10,22,60.0647575459,female,trial,2017_May_27_1646,
,,0.1,"[0, 0]",/sounds/legit/equal.wav,,,,,,,,,1,32,67,0,,,,,,,,,,,,,,,right,1.15170311928,participant10,22,60.0647575459,female,trial,2017_May_27_1646,
,,0.36,"[-4.5, 0]",/sounds/legit/left70.wav,,,,,,,,,1,33,68,27,,,,,,,,,,,,,,,left,0.51801109314,participant10,22,60.0647575459,female,trial,2017_May_27_1646,
,,0.49,"[6.75, 0]",/sounds/legit/right100.wav,,,,,,,,,1,34,69,18,,,,,,,,,,,,,,,right,0.267832040787,participant10,22,60.0647575459,female,trial,2017_May_27_1646,
,,0.1,"[-4.5, 0]",/sounds/legit/left70.wav,,,,,,,,,2,0,70,25,,,,,,,,,,,,,,,left,0.935459852219,participant10,22,60.0647575459,female,trial,2017_May_27_1646,
,,0.62,"[-6.75, 0]",/sounds/legit/left100.wav,,,,,,,,,2,1,71,34,,,,,,,,,,,,,,,left,0.218732833862,participant10,22,60.0647575459,female,trial,2017_May_27_1646,
,,0.36,"[2.25, 0]",/sounds/legit/right35.wav,,,,,,,,,2,2,72,7,,,,,,,,,,,,,,,left,0.184658050537,participant10,22,60.0647575459,female,trial,2017_May_27_1646,
,,0.36,"[4.5, 0]",/sounds/legit/right70.wav,,,,,,,,,2,3,73,12,,,,,,,,,,,,,,,right,0.885907173157,participant10,22,60.0647575459,female,trial,2017_May_27_1646,
,,0.23,"[0, 0]",/sounds/legit/equal.wav,,,,,,,,,2,4,74,1,,,,,,,,,,,,,,,right,0.218030929565,participant10,22,60.0647575459,female,trial,2017_May_27_1646,
,,0.1,"[2.25, 0]",/sounds/legit/right35.wav,,,,,,,,,2,5,75,5,,,,,,,,,,,,,,,right,0.268227100372,participant10,22,60.0647575459,female,trial,2017_May_27_1646,
,,0.62,"[-2.25, 0]",/sounds/legit/left35.wav,,,,,,,,,2,6,76,24,,,,,,,,,,,,,,,left,0.301901102066,participant10,22,60.0647575459,female,trial,2017_May_27_1646,
,,0.62,"[4.5, 0]",/sounds/legit/right70.wav,,,,,,,,,2,7,77,14,,,,,,,,,,,,,,,right,0.101119995117,participant10,22,60.0647575459,female,trial,2017_May_27_1646,
,,0.62,"[2.25, 0]",/sounds/legit/right35.wav,,,,,,,,,2,8,78,9,,,,,,,,,,,,,,,left,0.368804931641,participant10,22,60.0647575459,female,trial,2017_May_27_1646,
,,0.36,"[4.5, 0]",/sounds/legit/right70.wav,,,,,,,,,2,9,79,12,,,,,,,,,,,,,,,left,0.967981815338,participant10,22,60.0647575459,female,trial,2017_May_27_1646,
,,0.36,"[-6.75, 0]",/sounds/legit/left100.wav,,,,,,,,,2,10,80,32,,,,,,,,,,,,,,,left,0.201684951782,participant10,22,60.0647575459,female,trial,2017_May_27_1646,
,,0.62,"[2.25, 0]",/sounds/legit/right35.wav,,,,,,,,,2,11,81,9,,,,,,,,,,,,,,,left,1.78583598137,participant10,22,60.0647575459,female,trial,2017_May_27_1646,
,,0.23,"[6.75, 0]",/sounds/legit/right100.wav,,,,,,,,,2,12,82,16,,,,,,,,,,,,,,,right,0.501247167587,participant10,22,60.0647575459,female,trial,2017_May_27_1646,
,,0.36,"[6.75, 0]",/sounds/legit/right100.wav,,,,,,,,,2,13,83,17,,,,,,,,,,,,,,,right,0.28525018692,participant10,22,60.0647575459,female,trial,2017_May_27_1646,
,,0.23,"[4.5, 0]",/sounds/legit/right70.wav,,,,,,,,,2,14,84,11,,,,,,,,,,,,,,,right,0.168529987335,participant10,22,60.0647575459,female,trial,2017_May_27_1646,
,,0.36,"[6.75, 0]",/sounds/legit/right100.wav,,,,,,,,,2,15,85,17,,,,,,,,,,,,,,,right,0.217787981033,participant10,22,60.0647575459,female,trial,2017_May_27_1646,
,,0.49,"[2.25, 0]",/sounds/legit/right35.wav,,,,,,,,,2,16,86,8,,,,,,,,,,,,,,,right,0.267111063004,participant10,22,60.0647575459,female,trial,2017_May_27_1646,
,,0.1,"[4.5, 0]",/sounds/legit/right70.wav,,,,,,,,,2,17,87,10,,,,,,,,,,,,,,,right,0.901219844818,participant10,22,60.0647575459,female,trial,2017_May_27_1646,
,,0.1,"[6.75, 0]",/sounds/legit/right100.wav,,,,,,,,,2,18,88,15,,,,,,,,,,,,,,,right,0.368032932281,participant10,22,60.0647575459,female,trial,2017_May_27_1646,
,,0.1,"[4.5, 0]",/sounds/legit/right70.wav,,,,,,,,,2,19,89,10,,,,,,,,,,,,,,,right,0.751985788345,participant10,22,60.0647575459,female,trial,2017_May_27_1646,
,,0.1,"[-4.5, 0]",/sounds/legit/left70.wav,,,,,,,,,2,20,90,25,,,,,,,,,,,,,,,left,0.134056806564,participant10,22,60.0647575459,female,trial,2017_May_27_1646,
,,0.1,"[-4.5, 0]",/sounds/legit/left70.wav,,,,,,,,,2,21,91,25,,,,,,,,,,,,,,,left,0.617572069168,participant10,22,60.0647575459,female,trial,2017_May_27_1646,
,,0.62,"[-6.75, 0]",/sounds/legit/left100.wav,,,,,,,,,2,22,92,34,,,,,,,,,,,,,,,left,0.818846940994,participant10,22,60.0647575459,female,trial,2017_May_27_1646,
,,0.1,"[-4.5, 0]",/sounds/legit/left70.wav,,,,,,,,,2,23,93,25,,,,,,,,,,,,,,,left,0.301882982254,participant10,22,60.0647575459,female,trial,2017_May_27_1646,
,,0.49,"[6.75, 0]",/sounds/legit/right100.wav,,,,,,,,,2,24,94,18,,,,,,,,,,,,,,,right,0.0506229400635,participant10,22,60.0647575459,female,trial,2017_May_27_1646,
,,0.49,"[0, 0]",/sounds/legit/equal.wav,,,,,,,,,2,25,95,3,,,,,,,,,,,,,,,right,0.234321117401,participant10,22,60.0647575459,female,trial,2017_May_27_1646,
,,0.62,"[0, 0]",/sounds/legit/equal.wav,,,,,,,,,2,26,96,4,,,,,,,,,,,,,,,right,0.0524170398712,participant10,22,60.0647575459,female,trial,2017_May_27_1646,
,,0.62,"[-4.5, 0]",/sounds/legit/left70.wav,,,,,,,,,2,27,97,29,,,,,,,,,,,,,,,left,0.186412096024,participant10,22,60.0647575459,female,trial,2017_May_27_1646,
,,0.1,"[-2.25, 0]",/sounds/legit/left35.wav,,,,,,,,,2,28,98,20,,,,,,,,,,,,,,,left,0.685419082642,participant10,22,60.0647575459,female,trial,2017_May_27_1646,
,,0.23,"[-6.75, 0]",/sounds/legit/left100.wav,,,,,,,,,2,29,99,31,,,,,,,,,,,,,,,left,0.284603834152,participant10,22,60.0647575459,female,trial,2017_May_27_1646,
,,0.36,"[0, 0]",/sounds/legit/equal.wav,,,,,,,,,2,30,100,2,,,,,,,,,,,,,,,left,0.0685551166534,participant10,22,60.0647575459,female,trial,2017_May_27_1646,
,,0.49,"[-4.5, 0]",/sounds/legit/left70.wav,,,,,,,,,2,31,101,28,,,,,,,,,,,,,,,left,0.0336360931396,participant10,22,60.0647575459,female,trial,2017_May_27_1646,
,,0.1,"[-2.25, 0]",/sounds/legit/left35.wav,,,,,,,,,2,32,102,20,,,,,,,,,,,,,,,left,0.168210029602,participant10,22,60.0647575459,female,trial,2017_May_27_1646,
,,0.23,"[-6.75, 0]",/sounds/legit/left100.wav,,,,,,,,,2,33,103,31,,,,,,,,,,,,,,,left,0.0335788726807,participant10,22,60.0647575459,female,trial,2017_May_27_1646,
,,0.23,"[2.25, 0]",/sounds/legit/right35.wav,,,,,,,,,2,34,104,6,,,,,,,,,,,,,,,right,0.13513302803,participant10,22,60.0647575459,female,trial,2017_May_27_1646,
,,0.23,"[-6.75, 0]",/sounds/legit/left100.wav,,,,,,,,,3,0,105,31,,,,,,,,,,,,,,,left,0.0678818225861,participant10,22,60.0647575459,female,trial,2017_May_27_1646,
,,0.62,"[-4.5, 0]",/sounds/legit/left70.wav,,,,,,,,,3,1,106,29,,,,,,,,,,,,,,,left,0.869178771973,participant10,22,60.0647575459,female,trial,2017_May_27_1646,
,,0.62,"[4.5, 0]",/sounds/legit/right70.wav,,,,,,,,,3,2,107,14,,,,,,,,,,,,,,,left,1.25217795372,participant10,22,60.0647575459,female,trial,2017_May_27_1646,
,,0.1,"[-4.5, 0]",/sounds/legit/left70.wav,,,,,,,,,3,3,108,25,,,,,,,,,,,,,,,left,0.118261098862,participant10,22,60.0647575459,female,trial,2017_May_27_1646,
,,0.62,"[0, 0]",/sounds/legit/equal.wav,,,,,,,,,3,4,109,4,,,,,,,,,,,,,,,right,0.217965126038,participant10,22,60.0647575459,female,trial,2017_May_27_1646,
,,0.62,"[-2.25, 0]",/sounds/legit/left35.wav,,,,,,,,,3,5,110,24,,,,,,,,,,,,,,,right,0.0684769153595,participant10,22,60.0647575459,female,trial,2017_May_27_1646,
,,0.36,"[-6.75, 0]",/sounds/legit/left100.wav,,,,,,,,,3,6,111,32,,,,,,,,,,,,,,,left,0.13423204422,participant10,22,60.0647575459,female,trial,2017_May_27_1646,
,,0.62,"[-4.5, 0]",/sounds/legit/left70.wav,,,,,,,,,3,7,112,29,,,,,,,,,,,,,,,left,0.451683998108,participant10,22,60.0647575459,female,trial,2017_May_27_1646,
,,0.62,"[2.25, 0]",/sounds/legit/right35.wav,,,,,,,,,3,8,113,9,,,,,,,,,,,,,,,right,0.184883117676,participant10,22,60.0647575459,female,trial,2017_May_27_1646,
,,0.49,"[2.25, 0]",/sounds/legit/right35.wav,,,,,,,,,3,9,114,8,,,,,,,,,,,,,,,right,0.0180759429932,participant10,22,60.0647575459,female,trial,2017_May_27_1646,
,,0.23,"[6.75, 0]",/sounds/legit/right100.wav,,,,,,,,,3,10,115,16,,,,,,,,,,,,,,,right,0.0687210559845,participant10,22,60.0647575459,female,trial,2017_May_27_1646,
,,0.49,"[-4.5, 0]",/sounds/legit/left70.wav,,,,,,,,,3,11,116,28,,,,,,,,,,,,,,,left,0.201415061951,participant10,22,60.0647575459,female,trial,2017_May_27_1646,
,,0.36,"[0, 0]",/sounds/legit/equal.wav,,,,,,,,,3,12,117,2,,,,,,,,,,,,,,,left,0.2178170681,participant10,22,60.0647575459,female,trial,2017_May_27_1646,
,,0.23,"[-2.25, 0]",/sounds/legit/left35.wav,,,,,,,,,3,13,118,21,,,,,,,,,,,,,,,left,0.0347619056702,participant10,22,60.0647575459,female,trial,2017_May_27_1646,
,,0.49,"[-2.25, 0]",/sounds/legit/left35.wav,,,,,,,,,3,14,119,23,,,,,,,,,,,,,,,left,0.067234992981,participant10,22,60.0647575459,female,trial,2017_May_27_1646,
,,0.49,"[-4.5, 0]",/sounds/legit/left70.wav,,,,,,,,,3,15,120,28,,,,,,,,,,,,,,,left,0.00168514251709,participant10,22,60.0647575459,female,trial,2017_May_27_1646,
,,0.62,"[-6.75, 0]",/sounds/legit/left100.wav,,,,,,,,,3,16,121,34,,,,,,,,,,,,,,,left,0.0348510742188,participant10,22,60.0647575459,female,trial,2017_May_27_1646,
,,0.36,"[2.25, 0]",/sounds/legit/right35.wav,,,,,,,,,3,17,122,7,,,,,,,,,,,,,,,left,0.101602077484,participant10,22,60.0647575459,female,trial,2017_May_27_1646,
,,0.49,"[-6.75, 0]",/sounds/legit/left100.wav,,,,,,,,,3,18,123,33,,,,,,,,,,,,,,,left,0.0354619026184,participant10,22,60.0647575459,female,trial,2017_May_27_1646,
,,0.62,"[6.75, 0]",/sounds/legit/right100.wav,,,,,,,,,3,19,124,19,,,,,,,,,,,,,,,right,0.117975950241,participant10,22,60.0647575459,female,trial,2017_May_27_1646,
,,0.62,"[4.5, 0]",/sounds/legit/right70.wav,,,,,,,,,3,20,125,14,,,,,,,,,,,,,,,right,0.0185990333557,participant10,22,60.0647575459,female,trial,2017_May_27_1646,
,,0.49,"[0, 0]",/sounds/legit/equal.wav,,,,,,,,,3,21,126,3,,,,,,,,,,,,,,,right,0.334263086319,participant10,22,60.0647575459,female,trial,2017_May_27_1646,
,,0.62,"[2.25, 0]",/sounds/legit/right35.wav,,,,,,,,,3,22,127,9,,,,,,,,,,,,,,,left,0.117835044861,participant10,22,60.0647575459,female,trial,2017_May_27_1646,
,,0.23,"[-2.25, 0]",/sounds/legit/left35.wav,,,,,,,,,3,23,128,21,,,,,,,,,,,,,,,left,0.569135904312,participant10,22,60.0647575459,female,trial,2017_May_27_1646,
,,0.62,"[0, 0]",/sounds/legit/equal.wav,,,,,,,,,3,24,129,4,,,,,,,,,,,,,,,right,0.0844669342041,participant10,22,60.0647575459,female,trial,2017_May_27_1646,
,,0.1,"[-6.75, 0]",/sounds/legit/left100.wav,,,,,,,,,3,25,130,30,,,,,,,,,,,,,,,left,0.2018430233,participant10,22,60.0647575459,female,trial,2017_May_27_1646,
,,0.1,"[0, 0]",/sounds/legit/equal.wav,,,,,,,,,3,26,131,0,,,,,,,,,,,,,,,right,0.318283081055,participant10,22,60.0647575459,female,trial,2017_May_27_1646,
,,0.23,"[2.25, 0]",/sounds/legit/right35.wav,,,,,,,,,3,27,132,6,,,,,,,,,,,,,,,right,0.200879812241,participant10,22,60.0647575459,female,trial,2017_May_27_1646,
,,0.49,"[2.25, 0]",/sounds/legit/right35.wav,,,,,,,,,3,28,133,8,,,,,,,,,,,,,,,right,0.202286958694,participant10,22,60.0647575459,female,trial,2017_May_27_1646,
,,0.1,"[0, 0]",/sounds/legit/equal.wav,,,,,,,,,3,29,134,0,,,,,,,,,,,,,,,right,0.386106014252,participant10,22,60.0647575459,female,trial,2017_May_27_1646,
,,0.36,"[6.75, 0]",/sounds/legit/right100.wav,,,,,,,,,3,30,135,17,,,,,,,,,,,,,,,right,0.751554965973,participant10,22,60.0647575459,female,trial,2017_May_27_1646,
,,0.23,"[6.75, 0]",/sounds/legit/right100.wav,,,,,,,,,3,31,136,16,,,,,,,,,,,,,,,right,0.134079933167,participant10,22,60.0647575459,female,trial,2017_May_27_1646,
,,0.36,"[-6.75, 0]",/sounds/legit/left100.wav,,,,,,,,,3,32,137,32,,,,,,,,,,,,,,,left,0.201265096664,participant10,22,60.0647575459,female,trial,2017_May_27_1646,
,,0.62,"[-6.75, 0]",/sounds/legit/left100.wav,,,,,,,,,3,33,138,34,,,,,,,,,,,,,,,left,0.151864051819,participant10,22,60.0647575459,female,trial,2017_May_27_1646,
,,0.62,"[0, 0]",/sounds/legit/equal.wav,,,,,,,,,3,34,139,4,,,,,,,,,,,,,,,right,0.368904829025,participant10,22,60.0647575459,female,trial,2017_May_27_1646,
,,0.36,"[2.25, 0]",/sounds/legit/right35.wav,,,,,,,,,4,0,140,7,,,,,,,,,,,,,,,right,0.0688128471375,participant10,22,60.0647575459,female,trial,2017_May_27_1646,
,,0.23,"[2.25, 0]",/sounds/legit/right35.wav,,,,,,,,,4,1,141,6,,,,,,,,,,,,,,,right,0.467860937119,participant10,22,60.0647575459,female,trial,2017_May_27_1646,
,,0.36,"[0, 0]",/sounds/legit/equal.wav,,,,,,,,,4,2,142,2,,,,,,,,,,,,,,,right,0.16848897934,participant10,22,60.0647575459,female,trial,2017_May_27_1646,
,,0.1,"[-6.75, 0]",/sounds/legit/left100.wav,,,,,,,,,4,3,143,30,,,,,,,,,,,,,,,left,0.00173711776733,participant10,22,60.0647575459,female,trial,2017_May_27_1646,
,,0.49,"[4.5, 0]",/sounds/legit/right70.wav,,,,,,,,,4,4,144,13,,,,,,,,,,,,,,,right,0.518348932266,participant10,22,60.0647575459,female,trial,2017_May_27_1646,
,,0.36,"[0, 0]",/sounds/legit/equal.wav,,,,,,,,,4,5,145,2,,,,,,,,,,,,,,,right,0.101605176926,participant10,22,60.0647575459,female,trial,2017_May_27_1646,
,,0.49,"[6.75, 0]",/sounds/legit/right100.wav,,,,,,,,,4,6,146,18,,,,,,,,,,,,,,,right,0.41807103157,participant10,22,60.0647575459,female,trial,2017_May_27_1646,
,,0.36,"[2.25, 0]",/sounds/legit/right35.wav,,,,,,,,,4,7,147,7,,,,,,,,,,,,,,,right,0.285451889038,participant10,22,60.0647575459,female,trial,2017_May_27_1646,
,,0.1,"[-6.75, 0]",/sounds/legit/left100.wav,,,,,,,,,4,8,148,30,,,,,,,,,,,,,,,right,0.652073860168,participant10,22,60.0647575459,female,trial,2017_May_27_1646,
,,0.23,"[-4.5, 0]",/sounds/legit/left70.wav,,,,,,,,,4,9,149,26,,,,,,,,,,,,,,,right,0.0845918655396,participant10,22,60.0647575459,female,trial,2017_May_27_1646,
,,0.49,"[-6.75, 0]",/sounds/legit/left100.wav,,,,,,,,,4,10,150,33,,,,,,,,,,,,,,,left,0.0178520679474,participant10,22,60.0647575459,female,trial,2017_May_27_1646,
,,0.62,"[4.5, 0]",/sounds/legit/right70.wav,,,,,,,,,4,11,151,14,,,,,,,,,,,,,,,right,0.0338490009308,participant10,22,60.0647575459,female,trial,2017_May_27_1646,
,,0.36,"[-6.75, 0]",/sounds/legit/left100.wav,,,,,,,,,4,12,152,32,,,,,,,,,,,,,,,left,0.0686299800873,participant10,22,60.0647575459,female,trial,2017_May_27_1646,
,,0.23,"[-2.25, 0]",/sounds/legit/left35.wav,,,,,,,,,4,13,153,21,,,,,,,,,,,,,,,left,0.168161869049,participant10,22,60.0647575459,female,trial,2017_May_27_1646,
,,0.23,"[-4.5, 0]",/sounds/legit/left70.wav,,,,,,,,,4,14,154,26,,,,,,,,,,,,,,,left,0.218303203583,participant10,22,60.0647575459,female,trial,2017_May_27_1646,
,,0.23,"[-2.25, 0]",/sounds/legit/left35.wav,,,,,,,,,4,15,155,21,,,,,,,,,,,,,,,right,0.15283703804,participant10,22,60.0647575459,female,trial,2017_May_27_1646,
,,0.23,"[-4.5, 0]",/sounds/legit/left70.wav,,,,,,,,,4,16,156,26,,,,,,,,,,,,,,,left,0.0687010288239,participant10,22,60.0647575459,female,trial,2017_May_27_1646,
,,0.1,"[-4.5, 0]",/sounds/legit/left70.wav,,,,,,,,,4,17,157,25,,,,,,,,,,,,,,,left,0.167309999466,participant10,22,60.0647575459,female,trial,2017_May_27_1646,
,,0.1,"[6.75, 0]",/sounds/legit/right100.wav,,,,,,,,,4,18,158,15,,,,,,,,,,,,,,,right,0.452749967575,participant10,22,60.0647575459,female,trial,2017_May_27_1646,
,,0.62,"[6.75, 0]",/sounds/legit/right100.wav,,,,,,,,,4,19,159,19,,,,,,,,,,,,,,,right,0.00167202949524,participant10,22,60.0647575459,female,trial,2017_May_27_1646,
,,0.1,"[2.25, 0]",/sounds/legit/right35.wav,,,,,,,,,4,20,160,5,,,,,,,,,,,,,,,right,0.30070400238,participant10,22,60.0647575459,female,trial,2017_May_27_1646,
,,0.62,"[2.25, 0]",/sounds/legit/right35.wav,,,,,,,,,4,21,161,9,,,,,,,,,,,,,,,right,0.0354068279266,participant10,22,60.0647575459,female,trial,2017_May_27_1646,
,,0.49,"[0, 0]",/sounds/legit/equal.wav,,,,,,,,,4,22,162,3,,,,,,,,,,,,,,,right,0.0183069705963,participant10,22,60.0647575459,female,trial,2017_May_27_1646,
,,0.49,"[-6.75, 0]",/sounds/legit/left100.wav,,,,,,,,,4,23,163,33,,,,,,,,,,,,,,,left,0.0856740474701,participant10,22,60.0647575459,female,trial,2017_May_27_1646,
,,0.1,"[0, 0]",/sounds/legit/equal.wav,,,,,,,,,4,24,164,0,,,,,,,,,,,,,,,right,0.102456092834,participant10,22,60.0647575459,female,trial,2017_May_27_1646,
,,0.23,"[4.5, 0]",/sounds/legit/right70.wav,,,,,,,,,4,25,165,11,,,,,,,,,,,,,,,right,0.101026058197,participant10,22,60.0647575459,female,trial,2017_May_27_1646,
,,0.62,"[0, 0]",/sounds/legit/equal.wav,,,,,,,,,4,26,166,4,,,,,,,,,,,,,,,right,1.85285305977,participant10,22,60.0647575459,female,trial,2017_May_27_1646,
,,0.1,"[-6.75, 0]",/sounds/legit/left100.wav,,,,,,,,,4,27,167,30,,,,,,,,,,,,,,,left,0.252104997635,participant10,22,60.0647575459,female,trial,2017_May_27_1646,
,,0.1,"[6.75, 0]",/sounds/legit/right100.wav,,,,,,,,,4,28,168,15,,,,,,,,,,,,,,,right,0.501889944077,participant10,22,60.0647575459,female,trial,2017_May_27_1646,
,,0.49,"[6.75, 0]",/sounds/legit/right100.wav,,,,,,,,,4,29,169,18,,,,,,,,,,,,,,,right,0.701625108719,participant10,22,60.0647575459,female,trial,2017_May_27_1646,
,,0.1,"[-6.75, 0]",/sounds/legit/left100.wav,,,,,,,,,4,30,170,30,,,,,,,,,,,,,,,left,0.218827962875,participant10,22,60.0647575459,female,trial,2017_May_27_1646,
,,0.23,"[0, 0]",/sounds/legit/equal.wav,,,,,,,,,4,31,171,1,,,,,,,,,,,,,,,right,0.165835857391,participant10,22,60.0647575459,female,trial,2017_May_27_1646,
,,0.23,"[0, 0]",/sounds/legit/equal.wav,,,,,,,,,4,32,172,1,,,,,,,,,,,,,,,right,0.284416913986,participant10,22,60.0647575459,female,trial,2017_May_27_1646,
,,0.1,"[6.75, 0]",/sounds/legit/right100.wav,,,,,,,,,4,33,173,15,,,,,,,,,,,,,,,right,0.135087013245,participant10,22,60.0647575459,female,trial,2017_May_27_1646,
,,0.36,"[4.5, 0]",/sounds/legit/right70.wav,,,,,,,,,4,34,174,12,,,,,,,,,,,,,,,right,0.101390838623,participant10,22,60.0647575459,female,trial,2017_May_27_1646,
,,0.1,"[-2.25, 0]",/sounds/legit/left35.wav,,,,,,,,,5,0,175,20,,,,,,,,,,,,,,,left,0.186107873917,participant10,22,60.0647575459,female,trial,2017_May_27_1646,
,,0.1,"[-4.5, 0]",/sounds/legit/left70.wav,,,,,,,,,5,1,176,25,,,,,,,,,,,,,,,right,0.317826986313,participant10,22,60.0647575459,female,trial,2017_May_27_1646,
,,0.1,"[2.25, 0]",/sounds/legit/right35.wav,,,,,,,,,5,2,177,5,,,,,,,,,,,,,,,right,0.618170022964,participant10,22,60.0647575459,female,trial,2017_May_27_1646,
,,0.62,"[6.75, 0]",/sounds/legit/right100.wav,,,,,,,,,5,3,178,19,,,,,,,,,,,,,,,right,0.151447057724,participant10,22,60.0647575459,female,trial,2017_May_27_1646,
,,0.1,"[2.25, 0]",/sounds/legit/right35.wav,,,,,,,,,5,4,179,5,,,,,,,,,,,,,,,right,0.101420879364,participant10,22,60.0647575459,female,trial,2017_May_27_1646,
,,0.62,"[6.75, 0]",/sounds/legit/right100.wav,,,,,,,,,5,5,180,19,,,,,,,,,,,,,,,right,0.068372964859,participant10,22,60.0647575459,female,trial,2017_May_27_1646,
,,0.36,"[-4.5, 0]",/sounds/legit/left70.wav,,,,,,,,,5,6,181,27,,,,,,,,,,,,,,,left,0.134948015213,participant10,22,60.0647575459,female,trial,2017_May_27_1646,
,,0.62,"[4.5, 0]",/sounds/legit/right70.wav,,,,,,,,,5,7,182,14,,,,,,,,,,,,,,,right,0.519021987915,participant10,22,60.0647575459,female,trial,2017_May_27_1646,
,,0.62,"[-4.5, 0]",/sounds/legit/left70.wav,,,,,,,,,5,8,183,29,,,,,,,,,,,,,,,left,0.300456047058,participant10,22,60.0647575459,female,trial,2017_May_27_1646,
,,0.1,"[6.75, 0]",/sounds/legit/right100.wav,,,,,,,,,5,9,184,15,,,,,,,,,,,,,,,right,0.501857995987,participant10,22,60.0647575459,female,trial,2017_May_27_1646,
,,0.62,"[-2.25, 0]",/sounds/legit/left35.wav,,,,,,,,,5,10,185,24,,,,,,,,,,,,,,,right,0.251257896423,participant10,22,60.0647575459,female,trial,2017_May_27_1646,
,,0.36,"[-2.25, 0]",/sounds/legit/left35.wav,,,,,,,,,5,11,186,22,,,,,,,,,,,,,,,left,0.101619005203,participant10,22,60.0647575459,female,trial,2017_May_27_1646,
,,0.23,"[4.5, 0]",/sounds/legit/right70.wav,,,,,,,,,5,12,187,11,,,,,,,,,,,,,,,right,0.201719999313,participant10,22,60.0647575459,female,trial,2017_May_27_1646,
,,0.23,"[-6.75, 0]",/sounds/legit/left100.wav,,,,,,,,,5,13,188,31,,,,,,,,,,,,,,,left,0.0681238174438,participant10,22,60.0647575459,female,trial,2017_May_27_1646,
,,0.36,"[6.75, 0]",/sounds/legit/right100.wav,,,,,,,,,5,14,189,17,,,,,,,,,,,,,,,right,0.485322952271,participant10,22,60.0647575459,female,trial,2017_May_27_1646,
,,0.36,"[4.5, 0]",/sounds/legit/right70.wav,,,,,,,,,5,15,190,12,,,,,,,,,,,,,,,right,0.218553066254,participant10,22,60.0647575459,female,trial,2017_May_27_1646,
,,0.1,"[4.5, 0]",/sounds/legit/right70.wav,,,,,,,,,5,16,191,10,,,,,,,,,,,,,,,right,0.268874168396,participant10,22,60.0647575459,female,trial,2017_May_27_1646,
,,0.1,"[-4.5, 0]",/sounds/legit/left70.wav,,,,,,,,,5,17,192,25,,,,,,,,,,,,,,,left,0.118728876114,participant10,22,60.0647575459,female,trial,2017_May_27_1646,
,,0.49,"[0, 0]",/sounds/legit/equal.wav,,,,,,,,,5,18,193,3,,,,,,,,,,,,,,,right,0.00156497955322,participant10,22,60.0647575459,female,trial,2017_May_27_1646,
,,0.23,"[0, 0]",/sounds/legit/equal.wav,,,,,,,,,5,19,194,1,,,,,,,,,,,,,,,right,0.201155900955,participant10,22,60.0647575459,female,trial,2017_May_27_1646,
,,0.23,"[-2.25, 0]",/sounds/legit/left35.wav,,,,,,,,,5,20,195,21,,,,,,,,,,,,,,,left,0.0686399936676,participant10,22,60.0647575459,female,trial,2017_May_27_1646,
,,0.62,"[-4.5, 0]",/sounds/legit/left70.wav,,,,,,,,,5,21,196,29,,,,,,,,,,,,,,,left,0.201506137848,participant10,22,60.0647575459,female,trial,2017_May_27_1646,
,,0.36,"[-6.75, 0]",/sounds/legit/left100.wav,,,,,,,,,5,22,197,32,,,,,,,,,,,,,,,left,0.635291099548,participant10,22,60.0647575459,female,trial,2017_May_27_1646,
,,0.49,"[-2.25, 0]",/sounds/legit/left35.wav,,,,,,,,,5,23,198,23,,,,,,,,,,,,,,,left,0.0839600563049,participant10,22,60.0647575459,female,trial,2017_May_27_1646,
,,0.23,"[6.75, 0]",/sounds/legit/right100.wav,,,,,,,,,5,24,199,16,,,,,,,,,,,,,,,right,0.518690109253,participant10,22,60.0647575459,female,trial,2017_May_27_1646,
,,0.36,"[2.25, 0]",/sounds/legit/right35.wav,,,,,,,,,5,25,200,7,,,,,,,,,,,,,,,right,0.000336885452271,participant10,22,60.0647575459,female,trial,2017_May_27_1646,
,,0.49,"[-2.25, 0]",/sounds/legit/left35.wav,,,,,,,,,5,26,201,23,,,,,,,,,,,,,,,right,0.0349090099335,participant10,22,60.0647575459,female,trial,2017_May_27_1646,
,,0.36,"[0, 0]",/sounds/legit/equal.wav,,,,,,,,,5,27,202,2,,,,,,,,,,,,,,,right,0.368764877319,participant10,22,60.0647575459,female,trial,2017_May_27_1646,
