path,name,noise,location,correspondingAudio,audiotrials.thisRepN,audiotrials.thisTrialN,audiotrials.thisN,audiotrials.thisIndex,visualTrials.thisRepN,visualTrials.thisTrialN,visualTrials.thisN,visualTrials.thisIndex,combinedTrials.thisRepN,combinedTrials.thisTrialN,combinedTrials.thisN,combinedTrials.thisIndex,WelcomeKey.keys,WelcomeKey.rt,key_resp_2.keys,key_resp_2.rt,AudioInstrAccept.keys,AudioInstrAccept.rt,LeftorRight.keys,LeftorRight.rt,VisualBlock.keys,VisualBlock.rt,VisualDecision.keys,VisualDecision.rt,CombinedAccept.keys,CombinedAccept.rt,CombComparisonResponse.keys,CombComparisonResponse.rt,participant,age,frameRate,sex,expName,date,
,,,,,,,,,,,,,,,,,space,2.27609491348,,,,,,,,,,,,,,,participant8,24,59.8615890287,F,trial,2017_May_26_1850,
,,,,,,,,,,,,,,,,,,,space,7.3017539978,,,,,,,,,,,,,participant8,24,59.8615890287,F,trial,2017_May_26_1850,
,,,,,,,,,,,,,,,,,,,,,space,14.5999410152,,,,,,,,,,,participant8,24,59.8615890287,F,trial,2017_May_26_1850,
/sounds/legit/right35.wav,right30,,,,0,0,0,3,,,,,,,,,,,,,,,right,0.602842092514,,,,,,,,,participant8,24,59.8615890287,F,trial,2017_May_26_1850,
/sounds/legit/right70.wav,right60,,,,0,1,1,4,,,,,,,,,,,,,,,right,0.685861110687,,,,,,,,,participant8,24,59.8615890287,F,trial,2017_May_26_1850,
/sounds/legit/equal.wav,equal,,,,0,2,2,6,,,,,,,,,,,,,,,left,0.469409942627,,,,,,,,,participant8,24,59.8615890287,F,trial,2017_May_26_1850,
/sounds/legit/left100.wav,left100,,,,0,3,3,0,,,,,,,,,,,,,,,left,0.535830020905,,,,,,,,,participant8,24,59.8615890287,F,trial,2017_May_26_1850,
/sounds/legit/left70.wav,left60,,,,0,4,4,1,,,,,,,,,,,,,,,left,0.652364015579,,,,,,,,,participant8,24,59.8615890287,F,trial,2017_May_26_1850,
/sounds/legit/left35.wav,left30,,,,0,5,5,2,,,,,,,,,,,,,,,left,0.569334983826,,,,,,,,,participant8,24,59.8615890287,F,trial,2017_May_26_1850,
/sounds/legit/right100.wav,right100,,,,0,6,6,5,,,,,,,,,,,,,,,right,0.519049882889,,,,,,,,,participant8,24,59.8615890287,F,trial,2017_May_26_1850,
/sounds/legit/right100.wav,right100,,,,1,0,7,5,,,,,,,,,,,,,,,right,0.769721984863,,,,,,,,,participant8,24,59.8615890287,F,trial,2017_May_26_1850,
/sounds/legit/left100.wav,left100,,,,1,1,8,0,,,,,,,,,,,,,,,left,0.552804946899,,,,,,,,,participant8,24,59.8615890287,F,trial,2017_May_26_1850,
/sounds/legit/left70.wav,left60,,,,1,2,9,1,,,,,,,,,,,,,,,left,0.585840940475,,,,,,,,,participant8,24,59.8615890287,F,trial,2017_May_26_1850,
/sounds/legit/equal.wav,equal,,,,1,3,10,6,,,,,,,,,,,,,,,left,0.853596925735,,,,,,,,,participant8,24,59.8615890287,F,trial,2017_May_26_1850,
/sounds/legit/right70.wav,right60,,,,1,4,11,4,,,,,,,,,,,,,,,right,0.768494129181,,,,,,,,,participant8,24,59.8615890287,F,trial,2017_May_26_1850,
/sounds/legit/left35.wav,left30,,,,1,5,12,2,,,,,,,,,,,,,,,right,0.619292974472,,,,,,,,,participant8,24,59.8615890287,F,trial,2017_May_26_1850,
/sounds/legit/right35.wav,right30,,,,1,6,13,3,,,,,,,,,,,,,,,left,0.88653087616,,,,,,,,,participant8,24,59.8615890287,F,trial,2017_May_26_1850,
/sounds/legit/left100.wav,left100,,,,2,0,14,0,,,,,,,,,,,,,,,left,0.736213922501,,,,,,,,,participant8,24,59.8615890287,F,trial,2017_May_26_1850,
/sounds/legit/right100.wav,right100,,,,2,1,15,5,,,,,,,,,,,,,,,right,0.886634111404,,,,,,,,,participant8,24,59.8615890287,F,trial,2017_May_26_1850,
/sounds/legit/left35.wav,left30,,,,2,2,16,2,,,,,,,,,,,,,,,left,0.818514108658,,,,,,,,,participant8,24,59.8615890287,F,trial,2017_May_26_1850,
/sounds/legit/right35.wav,right30,,,,2,3,17,3,,,,,,,,,,,,,,,left,0.93659901619,,,,,,,,,participant8,24,59.8615890287,F,trial,2017_May_26_1850,
/sounds/legit/right70.wav,right60,,,,2,4,18,4,,,,,,,,,,,,,,,right,0.936586856842,,,,,,,,,participant8,24,59.8615890287,F,trial,2017_May_26_1850,
/sounds/legit/left70.wav,left60,,,,2,5,19,1,,,,,,,,,,,,,,,left,0.903883934021,,,,,,,,,participant8,24,59.8615890287,F,trial,2017_May_26_1850,
/sounds/legit/equal.wav,equal,,,,2,6,20,6,,,,,,,,,,,,,,,left,0.903746843338,,,,,,,,,participant8,24,59.8615890287,F,trial,2017_May_26_1850,
/sounds/legit/left100.wav,left100,,,,3,0,21,0,,,,,,,,,,,,,,,left,0.736191034317,,,,,,,,,participant8,24,59.8615890287,F,trial,2017_May_26_1850,
/sounds/legit/left35.wav,left30,,,,3,1,22,2,,,,,,,,,,,,,,,left,0.919939041138,,,,,,,,,participant8,24,59.8615890287,F,trial,2017_May_26_1850,
/sounds/legit/left70.wav,left60,,,,3,2,23,1,,,,,,,,,,,,,,,left,0.969120025635,,,,,,,,,participant8,24,59.8615890287,F,trial,2017_May_26_1850,
/sounds/legit/right70.wav,right60,,,,3,3,24,4,,,,,,,,,,,,,,,right,0.853157997131,,,,,,,,,participant8,24,59.8615890287,F,trial,2017_May_26_1850,
/sounds/legit/right35.wav,right30,,,,3,4,25,3,,,,,,,,,,,,,,,left,0.786191940308,,,,,,,,,participant8,24,59.8615890287,F,trial,2017_May_26_1850,
/sounds/legit/right100.wav,right100,,,,3,5,26,5,,,,,,,,,,,,,,,right,0.953299045563,,,,,,,,,participant8,24,59.8615890287,F,trial,2017_May_26_1850,
/sounds/legit/equal.wav,equal,,,,3,6,27,6,,,,,,,,,,,,,,,left,0.719437122345,,,,,,,,,participant8,24,59.8615890287,F,trial,2017_May_26_1850,
/sounds/legit/right35.wav,right30,,,,4,0,28,3,,,,,,,,,,,,,,,left,0.986694097519,,,,,,,,,participant8,24,59.8615890287,F,trial,2017_May_26_1850,
/sounds/legit/equal.wav,equal,,,,4,1,29,6,,,,,,,,,,,,,,,left,0.886570930481,,,,,,,,,participant8,24,59.8615890287,F,trial,2017_May_26_1850,
/sounds/legit/right70.wav,right60,,,,4,2,30,4,,,,,,,,,,,,,,,right,0.853217124939,,,,,,,,,participant8,24,59.8615890287,F,trial,2017_May_26_1850,
/sounds/legit/left70.wav,left60,,,,4,3,31,1,,,,,,,,,,,,,,,left,0.853120088577,,,,,,,,,participant8,24,59.8615890287,F,trial,2017_May_26_1850,
/sounds/legit/left35.wav,left30,,,,4,4,32,2,,,,,,,,,,,,,,,left,0.903259992599,,,,,,,,,participant8,24,59.8615890287,F,trial,2017_May_26_1850,
/sounds/legit/right100.wav,right100,,,,4,5,33,5,,,,,,,,,,,,,,,right,0.903015851974,,,,,,,,,participant8,24,59.8615890287,F,trial,2017_May_26_1850,
/sounds/legit/left100.wav,left100,,,,4,6,34,0,,,,,,,,,,,,,,,left,0.669357061386,,,,,,,,,participant8,24,59.8615890287,F,trial,2017_May_26_1850,
/sounds/legit/left100.wav,left100,,,,5,0,35,0,,,,,,,,,,,,,,,left,0.836527824402,,,,,,,,,participant8,24,59.8615890287,F,trial,2017_May_26_1850,
/sounds/legit/right35.wav,right30,,,,5,1,36,3,,,,,,,,,,,,,,,right,0.736166000366,,,,,,,,,participant8,24,59.8615890287,F,trial,2017_May_26_1850,
/sounds/legit/right100.wav,right100,,,,5,2,37,5,,,,,,,,,,,,,,,right,0.836495161057,,,,,,,,,participant8,24,59.8615890287,F,trial,2017_May_26_1850,
/sounds/legit/equal.wav,equal,,,,5,3,38,6,,,,,,,,,,,,,,,left,2.13923096657,,,,,,,,,participant8,24,59.8615890287,F,trial,2017_May_26_1850,
/sounds/legit/left35.wav,left30,,,,5,4,39,2,,,,,,,,,,,,,,,left,1.10346102715,,,,,,,,,participant8,24,59.8615890287,F,trial,2017_May_26_1850,
/sounds/legit/left70.wav,left60,,,,5,5,40,1,,,,,,,,,,,,,,,left,1.05358695984,,,,,,,,,participant8,24,59.8615890287,F,trial,2017_May_26_1850,
/sounds/legit/right70.wav,right60,,,,5,6,41,4,,,,,,,,,,,,,,,right,0.73597407341,,,,,,,,,participant8,24,59.8615890287,F,trial,2017_May_26_1850,
/sounds/legit/right70.wav,right60,,,,6,0,42,4,,,,,,,,,,,,,,,left,1.1536450386,,,,,,,,,participant8,24,59.8615890287,F,trial,2017_May_26_1850,
/sounds/legit/right100.wav,right100,,,,6,1,43,5,,,,,,,,,,,,,,,right,0.752831935883,,,,,,,,,participant8,24,59.8615890287,F,trial,2017_May_26_1850,
/sounds/legit/equal.wav,equal,,,,6,2,44,6,,,,,,,,,,,,,,,left,0.752823114395,,,,,,,,,participant8,24,59.8615890287,F,trial,2017_May_26_1850,
/sounds/legit/left100.wav,left100,,,,6,3,45,0,,,,,,,,,,,,,,,left,0.919996976852,,,,,,,,,participant8,24,59.8615890287,F,trial,2017_May_26_1850,
/sounds/legit/left70.wav,left60,,,,6,4,46,1,,,,,,,,,,,,,,,left,0.769476890564,,,,,,,,,participant8,24,59.8615890287,F,trial,2017_May_26_1850,
/sounds/legit/left35.wav,left30,,,,6,5,47,2,,,,,,,,,,,,,,,left,0.886507034302,,,,,,,,,participant8,24,59.8615890287,F,trial,2017_May_26_1850,
/sounds/legit/right35.wav,right30,,,,6,6,48,3,,,,,,,,,,,,,,,right,0.736155033112,,,,,,,,,participant8,24,59.8615890287,F,trial,2017_May_26_1850,
/sounds/legit/equal.wav,equal,,,,7,0,49,6,,,,,,,,,,,,,,,left,0.686147928238,,,,,,,,,participant8,24,59.8615890287,F,trial,2017_May_26_1850,
/sounds/legit/right35.wav,right30,,,,7,1,50,3,,,,,,,,,,,,,,,right,0.819772005081,,,,,,,,,participant8,24,59.8615890287,F,trial,2017_May_26_1850,
/sounds/legit/right100.wav,right100,,,,7,2,51,5,,,,,,,,,,,,,,,right,0.636003017426,,,,,,,,,participant8,24,59.8615890287,F,trial,2017_May_26_1850,
/sounds/legit/left35.wav,left30,,,,7,3,52,2,,,,,,,,,,,,,,,left,0.569290876389,,,,,,,,,participant8,24,59.8615890287,F,trial,2017_May_26_1850,
/sounds/legit/left70.wav,left60,,,,7,4,53,1,,,,,,,,,,,,,,,left,0.752931118011,,,,,,,,,participant8,24,59.8615890287,F,trial,2017_May_26_1850,
/sounds/legit/right70.wav,right60,,,,7,5,54,4,,,,,,,,,,,,,,,right,0.768564939499,,,,,,,,,participant8,24,59.8615890287,F,trial,2017_May_26_1850,
/sounds/legit/left100.wav,left100,,,,7,6,55,0,,,,,,,,,,,,,,,left,0.719518899918,,,,,,,,,participant8,24,59.8615890287,F,trial,2017_May_26_1850,
/sounds/legit/left35.wav,left30,,,,8,0,56,2,,,,,,,,,,,,,,,left,0.803016901016,,,,,,,,,participant8,24,59.8615890287,F,trial,2017_May_26_1850,
/sounds/legit/right35.wav,right30,,,,8,1,57,3,,,,,,,,,,,,,,,left,0.97038602829,,,,,,,,,participant8,24,59.8615890287,F,trial,2017_May_26_1850,
/sounds/legit/left100.wav,left100,,,,8,2,58,0,,,,,,,,,,,,,,,left,0.85370516777,,,,,,,,,participant8,24,59.8615890287,F,trial,2017_May_26_1850,
/sounds/legit/equal.wav,equal,,,,8,3,59,6,,,,,,,,,,,,,,,left,1.03726291656,,,,,,,,,participant8,24,59.8615890287,F,trial,2017_May_26_1850,
/sounds/legit/right100.wav,right100,,,,8,4,60,5,,,,,,,,,,,,,,,right,0.836380004883,,,,,,,,,participant8,24,59.8615890287,F,trial,2017_May_26_1850,
/sounds/legit/left70.wav,left60,,,,8,5,61,1,,,,,,,,,,,,,,,left,0.836637973785,,,,,,,,,participant8,24,59.8615890287,F,trial,2017_May_26_1850,
/sounds/legit/right70.wav,right60,,,,8,6,62,4,,,,,,,,,,,,,,,right,0.96896481514,,,,,,,,,participant8,24,59.8615890287,F,trial,2017_May_26_1850,
/sounds/legit/left70.wav,left60,,,,9,0,63,1,,,,,,,,,,,,,,,left,0.802897930145,,,,,,,,,participant8,24,59.8615890287,F,trial,2017_May_26_1850,
/sounds/legit/left100.wav,left100,,,,9,1,64,0,,,,,,,,,,,,,,,left,0.803094863892,,,,,,,,,participant8,24,59.8615890287,F,trial,2017_May_26_1850,
/sounds/legit/equal.wav,equal,,,,9,2,65,6,,,,,,,,,,,,,,,left,1.10410094261,,,,,,,,,participant8,24,59.8615890287,F,trial,2017_May_26_1850,
/sounds/legit/left35.wav,left30,,,,9,3,66,2,,,,,,,,,,,,,,,left,1.00360918045,,,,,,,,,participant8,24,59.8615890287,F,trial,2017_May_26_1850,
/sounds/legit/right70.wav,right60,,,,9,4,67,4,,,,,,,,,,,,,,,right,0.853139162064,,,,,,,,,participant8,24,59.8615890287,F,trial,2017_May_26_1850,
/sounds/legit/right35.wav,right30,,,,9,5,68,3,,,,,,,,,,,,,,,right,1.13723301888,,,,,,,,,participant8,24,59.8615890287,F,trial,2017_May_26_1850,
/sounds/legit/right100.wav,right100,,,,9,6,69,5,,,,,,,,,,,,,,,right,0.986638069153,,,,,,,,,participant8,24,59.8615890287,F,trial,2017_May_26_1850,
,,,,,,,,,,,,,,,,,,,,,,,,,space,8.38656592369,,,,,,,participant8,24,59.8615890287,F,trial,2017_May_26_1850,
,,0.62,"[2.25, 0]",/sounds/legit/right35.wav,,,,,0,0,0,9,,,,,,,,,,,,,,,right,0.90340590477,,,,,participant8,24,59.8615890287,F,trial,2017_May_26_1850,
,,0.23,"[-2.25, 0]",/sounds/legit/left35.wav,,,,,0,1,1,21,,,,,,,,,,,,,,,left,0.91993188858,,,,,participant8,24,59.8615890287,F,trial,2017_May_26_1850,
,,0.23,"[4.5, 0]",/sounds/legit/right70.wav,,,,,0,2,2,11,,,,,,,,,,,,,,,right,0.76950097084,,,,,participant8,24,59.8615890287,F,trial,2017_May_26_1850,
,,0.62,"[4.5, 0]",/sounds/legit/right70.wav,,,,,0,3,3,14,,,,,,,,,,,,,,,right,0.870298147202,,,,,participant8,24,59.8615890287,F,trial,2017_May_26_1850,
,,0.36,"[0, 0]",/sounds/legit/equal.wav,,,,,0,4,4,2,,,,,,,,,,,,,,,left,0.719706058502,,,,,participant8,24,59.8615890287,F,trial,2017_May_26_1850,
,,0.36,"[-4.5, 0]",/sounds/legit/left70.wav,,,,,0,5,5,27,,,,,,,,,,,,,,,left,0.819580078125,,,,,participant8,24,59.8615890287,F,trial,2017_May_26_1850,
,,0.36,"[-6.75, 0]",/sounds/legit/left100.wav,,,,,0,6,6,32,,,,,,,,,,,,,,,left,0.721127033234,,,,,participant8,24,59.8615890287,F,trial,2017_May_26_1850,
,,0.49,"[0, 0]",/sounds/legit/equal.wav,,,,,0,7,7,3,,,,,,,,,,,,,,,left,0.886321783066,,,,,participant8,24,59.8615890287,F,trial,2017_May_26_1850,
,,0.1,"[2.25, 0]",/sounds/legit/right35.wav,,,,,0,8,8,5,,,,,,,,,,,,,,,right,0.736147880554,,,,,participant8,24,59.8615890287,F,trial,2017_May_26_1850,
,,0.49,"[-2.25, 0]",/sounds/legit/left35.wav,,,,,0,9,9,23,,,,,,,,,,,,,,,left,0.752920866013,,,,,participant8,24,59.8615890287,F,trial,2017_May_26_1850,
,,0.49,"[4.5, 0]",/sounds/legit/right70.wav,,,,,0,10,10,13,,,,,,,,,,,,,,,right,0.71950507164,,,,,participant8,24,59.8615890287,F,trial,2017_May_26_1850,
,,0.62,"[-2.25, 0]",/sounds/legit/left35.wav,,,,,0,11,11,24,,,,,,,,,,,,,,,left,0.886653900146,,,,,participant8,24,59.8615890287,F,trial,2017_May_26_1850,
,,0.49,"[-6.75, 0]",/sounds/legit/left100.wav,,,,,0,12,12,33,,,,,,,,,,,,,,,left,0.836275100708,,,,,participant8,24,59.8615890287,F,trial,2017_May_26_1850,
,,0.49,"[2.25, 0]",/sounds/legit/right35.wav,,,,,0,13,13,8,,,,,,,,,,,,,,,right,0.786199092865,,,,,participant8,24,59.8615890287,F,trial,2017_May_26_1850,
,,0.23,"[-4.5, 0]",/sounds/legit/left70.wav,,,,,0,14,14,26,,,,,,,,,,,,,,,left,0.753242015839,,,,,participant8,24,59.8615890287,F,trial,2017_May_26_1850,
,,0.1,"[4.5, 0]",/sounds/legit/right70.wav,,,,,0,15,15,10,,,,,,,,,,,,,,,right,0.719671964645,,,,,participant8,24,59.8615890287,F,trial,2017_May_26_1850,
,,0.36,"[4.5, 0]",/sounds/legit/right70.wav,,,,,0,16,16,12,,,,,,,,,,,,,,,right,0.869881868362,,,,,participant8,24,59.8615890287,F,trial,2017_May_26_1850,
,,0.36,"[6.75, 0]",/sounds/legit/right100.wav,,,,,0,17,17,17,,,,,,,,,,,,,,,right,0.886457920074,,,,,participant8,24,59.8615890287,F,trial,2017_May_26_1850,
,,0.62,"[-6.75, 0]",/sounds/legit/left100.wav,,,,,0,18,18,34,,,,,,,,,,,,,,,left,0.953785181046,,,,,participant8,24,59.8615890287,F,trial,2017_May_26_1850,
,,0.1,"[-4.5, 0]",/sounds/legit/left70.wav,,,,,0,19,19,25,,,,,,,,,,,,,,,left,1.05379986763,,,,,participant8,24,59.8615890287,F,trial,2017_May_26_1850,
,,0.36,"[2.25, 0]",/sounds/legit/right35.wav,,,,,0,20,20,7,,,,,,,,,,,,,,,right,0.719567060471,,,,,participant8,24,59.8615890287,F,trial,2017_May_26_1850,
,,0.62,"[0, 0]",/sounds/legit/equal.wav,,,,,0,21,21,4,,,,,,,,,,,,,,,left,0.703113079071,,,,,participant8,24,59.8615890287,F,trial,2017_May_26_1850,
,,0.62,"[-4.5, 0]",/sounds/legit/left70.wav,,,,,0,22,22,29,,,,,,,,,,,,,,,left,0.83656001091,,,,,participant8,24,59.8615890287,F,trial,2017_May_26_1850,
,,0.1,"[-2.25, 0]",/sounds/legit/left35.wav,,,,,0,23,23,20,,,,,,,,,,,,,,,left,0.669635057449,,,,,participant8,24,59.8615890287,F,trial,2017_May_26_1850,
,,0.23,"[-6.75, 0]",/sounds/legit/left100.wav,,,,,0,24,24,31,,,,,,,,,,,,,,,left,0.769695997238,,,,,participant8,24,59.8615890287,F,trial,2017_May_26_1850,
,,0.62,"[6.75, 0]",/sounds/legit/right100.wav,,,,,0,25,25,19,,,,,,,,,,,,,,,right,1.23734307289,,,,,participant8,24,59.8615890287,F,trial,2017_May_26_1850,
,,0.49,"[-4.5, 0]",/sounds/legit/left70.wav,,,,,0,26,26,28,,,,,,,,,,,,,,,left,0.786571979523,,,,,participant8,24,59.8615890287,F,trial,2017_May_26_1850,
,,0.23,"[6.75, 0]",/sounds/legit/right100.wav,,,,,0,27,27,16,,,,,,,,,,,,,,,right,0.736310005188,,,,,participant8,24,59.8615890287,F,trial,2017_May_26_1850,
,,0.23,"[0, 0]",/sounds/legit/equal.wav,,,,,0,28,28,1,,,,,,,,,,,,,,,left,0.802761077881,,,,,participant8,24,59.8615890287,F,trial,2017_May_26_1850,
,,0.1,"[6.75, 0]",/sounds/legit/right100.wav,,,,,0,29,29,15,,,,,,,,,,,,,,,right,0.836642026901,,,,,participant8,24,59.8615890287,F,trial,2017_May_26_1850,
,,0.1,"[0, 0]",/sounds/legit/equal.wav,,,,,0,30,30,0,,,,,,,,,,,,,,,left,0.719484090805,,,,,participant8,24,59.8615890287,F,trial,2017_May_26_1850,
,,0.49,"[6.75, 0]",/sounds/legit/right100.wav,,,,,0,31,31,18,,,,,,,,,,,,,,,right,0.936737060547,,,,,participant8,24,59.8615890287,F,trial,2017_May_26_1850,
,,0.1,"[-6.75, 0]",/sounds/legit/left100.wav,,,,,0,32,32,30,,,,,,,,,,,,,,,left,0.752954959869,,,,,participant8,24,59.8615890287,F,trial,2017_May_26_1850,
,,0.36,"[-2.25, 0]",/sounds/legit/left35.wav,,,,,0,33,33,22,,,,,,,,,,,,,,,left,0.636323928833,,,,,participant8,24,59.8615890287,F,trial,2017_May_26_1850,
,,0.23,"[2.25, 0]",/sounds/legit/right35.wav,,,,,0,34,34,6,,,,,,,,,,,,,,,right,0.686170816422,,,,,participant8,24,59.8615890287,F,trial,2017_May_26_1850,
,,0.36,"[2.25, 0]",/sounds/legit/right35.wav,,,,,1,0,35,7,,,,,,,,,,,,,,,right,0.85306596756,,,,,participant8,24,59.8615890287,F,trial,2017_May_26_1850,
,,0.36,"[-2.25, 0]",/sounds/legit/left35.wav,,,,,1,1,36,22,,,,,,,,,,,,,,,left,0.819637060165,,,,,participant8,24,59.8615890287,F,trial,2017_May_26_1850,
,,0.62,"[-2.25, 0]",/sounds/legit/left35.wav,,,,,1,2,37,24,,,,,,,,,,,,,,,left,0.82088804245,,,,,participant8,24,59.8615890287,F,trial,2017_May_26_1850,
,,0.36,"[-4.5, 0]",/sounds/legit/left70.wav,,,,,1,3,38,27,,,,,,,,,,,,,,,left,0.819701910019,,,,,participant8,24,59.8615890287,F,trial,2017_May_26_1850,
,,0.1,"[6.75, 0]",/sounds/legit/right100.wav,,,,,1,4,39,15,,,,,,,,,,,,,,,right,0.936573028564,,,,,participant8,24,59.8615890287,F,trial,2017_May_26_1850,
,,0.1,"[4.5, 0]",/sounds/legit/right70.wav,,,,,1,5,40,10,,,,,,,,,,,,,,,right,0.686317920685,,,,,participant8,24,59.8615890287,F,trial,2017_May_26_1850,
,,0.1,"[-2.25, 0]",/sounds/legit/left35.wav,,,,,1,6,41,20,,,,,,,,,,,,,,,left,0.969974040985,,,,,participant8,24,59.8615890287,F,trial,2017_May_26_1850,
,,0.49,"[-4.5, 0]",/sounds/legit/left70.wav,,,,,1,7,42,28,,,,,,,,,,,,,,,left,0.903151988983,,,,,participant8,24,59.8615890287,F,trial,2017_May_26_1850,
,,0.62,"[4.5, 0]",/sounds/legit/right70.wav,,,,,1,8,43,14,,,,,,,,,,,,,,,right,0.836602926254,,,,,participant8,24,59.8615890287,F,trial,2017_May_26_1850,
,,0.36,"[-6.75, 0]",/sounds/legit/left100.wav,,,,,1,9,44,32,,,,,,,,,,,,,,,left,0.885616064072,,,,,participant8,24,59.8615890287,F,trial,2017_May_26_1850,
,,0.23,"[-4.5, 0]",/sounds/legit/left70.wav,,,,,1,10,45,26,,,,,,,,,,,,,,,left,0.735937833786,,,,,participant8,24,59.8615890287,F,trial,2017_May_26_1850,
,,0.49,"[4.5, 0]",/sounds/legit/right70.wav,,,,,1,11,46,13,,,,,,,,,,,,,,,right,0.76975607872,,,,,participant8,24,59.8615890287,F,trial,2017_May_26_1850,
,,0.1,"[0, 0]",/sounds/legit/equal.wav,,,,,1,12,47,0,,,,,,,,,,,,,,,left,0.70281791687,,,,,participant8,24,59.8615890287,F,trial,2017_May_26_1850,
,,0.1,"[2.25, 0]",/sounds/legit/right35.wav,,,,,1,13,48,5,,,,,,,,,,,,,,,right,0.652714967728,,,,,participant8,24,59.8615890287,F,trial,2017_May_26_1850,
,,0.62,"[6.75, 0]",/sounds/legit/right100.wav,,,,,1,14,49,19,,,,,,,,,,,,,,,right,0.836483001709,,,,,participant8,24,59.8615890287,F,trial,2017_May_26_1850,
,,0.49,"[2.25, 0]",/sounds/legit/right35.wav,,,,,1,15,50,8,,,,,,,,,,,,,,,right,0.6694688797,,,,,participant8,24,59.8615890287,F,trial,2017_May_26_1850,
,,0.49,"[6.75, 0]",/sounds/legit/right100.wav,,,,,1,16,51,18,,,,,,,,,,,,,,,right,0.552313089371,,,,,participant8,24,59.8615890287,F,trial,2017_May_26_1850,
,,0.36,"[4.5, 0]",/sounds/legit/right70.wav,,,,,1,17,52,12,,,,,,,,,,,,,,,right,0.652787923813,,,,,participant8,24,59.8615890287,F,trial,2017_May_26_1850,
,,0.62,"[0, 0]",/sounds/legit/equal.wav,,,,,1,18,53,4,,,,,,,,,,,,,,,left,0.836591959,,,,,participant8,24,59.8615890287,F,trial,2017_May_26_1850,
,,0.36,"[0, 0]",/sounds/legit/equal.wav,,,,,1,19,54,2,,,,,,,,,,,,,,,right,1.17050504684,,,,,participant8,24,59.8615890287,F,trial,2017_May_26_1850,
,,0.62,"[-6.75, 0]",/sounds/legit/left100.wav,,,,,1,20,55,34,,,,,,,,,,,,,,,left,0.83661699295,,,,,participant8,24,59.8615890287,F,trial,2017_May_26_1850,
,,0.49,"[-2.25, 0]",/sounds/legit/left35.wav,,,,,1,21,56,23,,,,,,,,,,,,,,,left,0.769749879837,,,,,participant8,24,59.8615890287,F,trial,2017_May_26_1850,
,,0.62,"[2.25, 0]",/sounds/legit/right35.wav,,,,,1,22,57,9,,,,,,,,,,,,,,,right,0.586005210876,,,,,participant8,24,59.8615890287,F,trial,2017_May_26_1850,
,,0.49,"[0, 0]",/sounds/legit/equal.wav,,,,,1,23,58,3,,,,,,,,,,,,,,,left,0.768676042557,,,,,participant8,24,59.8615890287,F,trial,2017_May_26_1850,
,,0.23,"[6.75, 0]",/sounds/legit/right100.wav,,,,,1,24,59,16,,,,,,,,,,,,,,,right,0.585905075073,,,,,participant8,24,59.8615890287,F,trial,2017_May_26_1850,
,,0.23,"[-6.75, 0]",/sounds/legit/left100.wav,,,,,1,25,60,31,,,,,,,,,,,,,,,left,0.502551078796,,,,,participant8,24,59.8615890287,F,trial,2017_May_26_1850,
,,0.62,"[-4.5, 0]",/sounds/legit/left70.wav,,,,,1,26,61,29,,,,,,,,,,,,,,,left,0.469188213348,,,,,participant8,24,59.8615890287,F,trial,2017_May_26_1850,
,,0.49,"[-6.75, 0]",/sounds/legit/left100.wav,,,,,1,27,62,33,,,,,,,,,,,,,,,left,0.535923957825,,,,,participant8,24,59.8615890287,F,trial,2017_May_26_1850,
,,0.23,"[4.5, 0]",/sounds/legit/right70.wav,,,,,1,28,63,11,,,,,,,,,,,,,,,right,0.552593946457,,,,,participant8,24,59.8615890287,F,trial,2017_May_26_1850,
,,0.23,"[-2.25, 0]",/sounds/legit/left35.wav,,,,,1,29,64,21,,,,,,,,,,,,,,,left,0.653914928436,,,,,participant8,24,59.8615890287,F,trial,2017_May_26_1850,
,,0.1,"[-4.5, 0]",/sounds/legit/left70.wav,,,,,1,30,65,25,,,,,,,,,,,,,,,left,0.48560500145,,,,,participant8,24,59.8615890287,F,trial,2017_May_26_1850,
,,0.36,"[6.75, 0]",/sounds/legit/right100.wav,,,,,1,31,66,17,,,,,,,,,,,,,,,right,0.584806919098,,,,,participant8,24,59.8615890287,F,trial,2017_May_26_1850,
,,0.23,"[2.25, 0]",/sounds/legit/right35.wav,,,,,1,32,67,6,,,,,,,,,,,,,,,right,0.602336883545,,,,,participant8,24,59.8615890287,F,trial,2017_May_26_1850,
,,0.23,"[0, 0]",/sounds/legit/equal.wav,,,,,1,33,68,1,,,,,,,,,,,,,,,left,0.55248093605,,,,,participant8,24,59.8615890287,F,trial,2017_May_26_1850,
,,0.1,"[-6.75, 0]",/sounds/legit/left100.wav,,,,,1,34,69,30,,,,,,,,,,,,,,,left,0.585881948471,,,,,participant8,24,59.8615890287,F,trial,2017_May_26_1850,
,,0.23,"[4.5, 0]",/sounds/legit/right70.wav,,,,,2,0,70,11,,,,,,,,,,,,,,,right,0.586114883423,,,,,participant8,24,59.8615890287,F,trial,2017_May_26_1850,
,,0.36,"[0, 0]",/sounds/legit/equal.wav,,,,,2,1,71,2,,,,,,,,,,,,,,,left,0.753048181534,,,,,participant8,24,59.8615890287,F,trial,2017_May_26_1850,
,,0.1,"[-4.5, 0]",/sounds/legit/left70.wav,,,,,2,2,72,25,,,,,,,,,,,,,,,left,0.585915803909,,,,,participant8,24,59.8615890287,F,trial,2017_May_26_1850,
,,0.49,"[4.5, 0]",/sounds/legit/right70.wav,,,,,2,3,73,13,,,,,,,,,,,,,,,right,0.669353961945,,,,,participant8,24,59.8615890287,F,trial,2017_May_26_1850,
,,0.23,"[-2.25, 0]",/sounds/legit/left35.wav,,,,,2,4,74,21,,,,,,,,,,,,,,,left,0.619023084641,,,,,participant8,24,59.8615890287,F,trial,2017_May_26_1850,
,,0.49,"[-6.75, 0]",/sounds/legit/left100.wav,,,,,2,5,75,33,,,,,,,,,,,,,,,left,0.636065006256,,,,,participant8,24,59.8615890287,F,trial,2017_May_26_1850,
,,0.49,"[2.25, 0]",/sounds/legit/right35.wav,,,,,2,6,76,8,,,,,,,,,,,,,,,right,0.753039121628,,,,,participant8,24,59.8615890287,F,trial,2017_May_26_1850,
,,0.23,"[2.25, 0]",/sounds/legit/right35.wav,,,,,2,7,77,6,,,,,,,,,,,,,,,right,0.669536828995,,,,,participant8,24,59.8615890287,F,trial,2017_May_26_1850,
,,0.49,"[-4.5, 0]",/sounds/legit/left70.wav,,,,,2,8,78,28,,,,,,,,,,,,,,,left,0.652896881104,,,,,participant8,24,59.8615890287,F,trial,2017_May_26_1850,
,,0.36,"[-2.25, 0]",/sounds/legit/left35.wav,,,,,2,9,79,22,,,,,,,,,,,,,,,left,0.769836902618,,,,,participant8,24,59.8615890287,F,trial,2017_May_26_1850,
,,0.1,"[-6.75, 0]",/sounds/legit/left100.wav,,,,,2,10,80,30,,,,,,,,,,,,,,,left,0.585045099258,,,,,participant8,24,59.8615890287,F,trial,2017_May_26_1850,
,,0.23,"[0, 0]",/sounds/legit/equal.wav,,,,,2,11,81,1,,,,,,,,,,,,,,,left,0.869926929474,,,,,participant8,24,59.8615890287,F,trial,2017_May_26_1850,
,,0.62,"[0, 0]",/sounds/legit/equal.wav,,,,,2,12,82,4,,,,,,,,,,,,,,,left,0.920146942139,,,,,participant8,24,59.8615890287,F,trial,2017_May_26_1850,
,,0.36,"[2.25, 0]",/sounds/legit/right35.wav,,,,,2,13,83,7,,,,,,,,,,,,,,,right,0.535169124603,,,,,participant8,24,59.8615890287,F,trial,2017_May_26_1850,
,,0.1,"[4.5, 0]",/sounds/legit/right70.wav,,,,,2,14,84,10,,,,,,,,,,,,,,,right,0.552638053894,,,,,participant8,24,59.8615890287,F,trial,2017_May_26_1850,
,,0.1,"[0, 0]",/sounds/legit/equal.wav,,,,,2,15,85,0,,,,,,,,,,,,,,,left,0.669636964798,,,,,participant8,24,59.8615890287,F,trial,2017_May_26_1850,
,,0.62,"[2.25, 0]",/sounds/legit/right35.wav,,,,,2,16,86,9,,,,,,,,,,,,,,,right,0.719528913498,,,,,participant8,24,59.8615890287,F,trial,2017_May_26_1850,
,,0.62,"[6.75, 0]",/sounds/legit/right100.wav,,,,,2,17,87,19,,,,,,,,,,,,,,,right,0.687277078629,,,,,participant8,24,59.8615890287,F,trial,2017_May_26_1850,
,,0.49,"[0, 0]",/sounds/legit/equal.wav,,,,,2,18,88,3,,,,,,,,,,,,,,,left,0.652502059937,,,,,participant8,24,59.8615890287,F,trial,2017_May_26_1850,
,,0.62,"[-6.75, 0]",/sounds/legit/left100.wav,,,,,2,19,89,34,,,,,,,,,,,,,,,left,0.652774810791,,,,,participant8,24,59.8615890287,F,trial,2017_May_26_1850,
,,0.1,"[6.75, 0]",/sounds/legit/right100.wav,,,,,2,20,90,15,,,,,,,,,,,,,,,right,0.619364976883,,,,,participant8,24,59.8615890287,F,trial,2017_May_26_1850,
,,0.49,"[6.75, 0]",/sounds/legit/right100.wav,,,,,2,21,91,18,,,,,,,,,,,,,,,right,0.703253030777,,,,,participant8,24,59.8615890287,F,trial,2017_May_26_1850,
,,0.23,"[-6.75, 0]",/sounds/legit/left100.wav,,,,,2,22,92,31,,,,,,,,,,,,,,,left,0.552557945251,,,,,participant8,24,59.8615890287,F,trial,2017_May_26_1850,
,,0.36,"[-6.75, 0]",/sounds/legit/left100.wav,,,,,2,23,93,32,,,,,,,,,,,,,,,left,0.502392053604,,,,,participant8,24,59.8615890287,F,trial,2017_May_26_1850,
,,0.36,"[6.75, 0]",/sounds/legit/right100.wav,,,,,2,24,94,17,,,,,,,,,,,,,,,right,0.485678911209,,,,,participant8,24,59.8615890287,F,trial,2017_May_26_1850,
,,0.23,"[6.75, 0]",/sounds/legit/right100.wav,,,,,2,25,95,16,,,,,,,,,,,,,,,right,0.552433013916,,,,,participant8,24,59.8615890287,F,trial,2017_May_26_1850,
,,0.36,"[4.5, 0]",/sounds/legit/right70.wav,,,,,2,26,96,12,,,,,,,,,,,,,,,right,0.71932721138,,,,,participant8,24,59.8615890287,F,trial,2017_May_26_1850,
,,0.1,"[-2.25, 0]",/sounds/legit/left35.wav,,,,,2,27,97,20,,,,,,,,,,,,,,,left,0.552505016327,,,,,participant8,24,59.8615890287,F,trial,2017_May_26_1850,
,,0.62,"[4.5, 0]",/sounds/legit/right70.wav,,,,,2,28,98,14,,,,,,,,,,,,,,,right,0.769613981247,,,,,participant8,24,59.8615890287,F,trial,2017_May_26_1850,
,,0.36,"[-4.5, 0]",/sounds/legit/left70.wav,,,,,2,29,99,27,,,,,,,,,,,,,,,left,0.668653011322,,,,,participant8,24,59.8615890287,F,trial,2017_May_26_1850,
,,0.62,"[-2.25, 0]",/sounds/legit/left35.wav,,,,,2,30,100,24,,,,,,,,,,,,,,,left,0.686050891876,,,,,participant8,24,59.8615890287,F,trial,2017_May_26_1850,
,,0.1,"[2.25, 0]",/sounds/legit/right35.wav,,,,,2,31,101,5,,,,,,,,,,,,,,,right,0.635993003845,,,,,participant8,24,59.8615890287,F,trial,2017_May_26_1850,
,,0.62,"[-4.5, 0]",/sounds/legit/left70.wav,,,,,2,32,102,29,,,,,,,,,,,,,,,left,0.585685968399,,,,,participant8,24,59.8615890287,F,trial,2017_May_26_1850,
,,0.49,"[-2.25, 0]",/sounds/legit/left35.wav,,,,,2,33,103,23,,,,,,,,,,,,,,,left,0.919967889786,,,,,participant8,24,59.8615890287,F,trial,2017_May_26_1850,
,,0.23,"[-4.5, 0]",/sounds/legit/left70.wav,,,,,2,34,104,26,,,,,,,,,,,,,,,left,0.586215019226,,,,,participant8,24,59.8615890287,F,trial,2017_May_26_1850,
,,0.23,"[4.5, 0]",/sounds/legit/right70.wav,,,,,3,0,105,11,,,,,,,,,,,,,,,right,0.703086853027,,,,,participant8,24,59.8615890287,F,trial,2017_May_26_1850,
,,0.49,"[0, 0]",/sounds/legit/equal.wav,,,,,3,1,106,3,,,,,,,,,,,,,,,left,0.686237096786,,,,,participant8,24,59.8615890287,F,trial,2017_May_26_1850,
,,0.36,"[2.25, 0]",/sounds/legit/right35.wav,,,,,3,2,107,7,,,,,,,,,,,,,,,right,0.853423833847,,,,,participant8,24,59.8615890287,F,trial,2017_May_26_1850,
,,0.49,"[-4.5, 0]",/sounds/legit/left70.wav,,,,,3,3,108,28,,,,,,,,,,,,,,,left,0.702937841415,,,,,participant8,24,59.8615890287,F,trial,2017_May_26_1850,
,,0.1,"[0, 0]",/sounds/legit/equal.wav,,,,,3,4,109,0,,,,,,,,,,,,,,,left,0.702952861786,,,,,participant8,24,59.8615890287,F,trial,2017_May_26_1850,
,,0.36,"[-4.5, 0]",/sounds/legit/left70.wav,,,,,3,5,110,27,,,,,,,,,,,,,,,left,0.852982997894,,,,,participant8,24,59.8615890287,F,trial,2017_May_26_1850,
,,0.23,"[6.75, 0]",/sounds/legit/right100.wav,,,,,3,6,111,16,,,,,,,,,,,,,,,right,0.769402980804,,,,,participant8,24,59.8615890287,F,trial,2017_May_26_1850,
,,0.36,"[0, 0]",/sounds/legit/equal.wav,,,,,3,7,112,2,,,,,,,,,,,,,,,left,0.770157814026,,,,,participant8,24,59.8615890287,F,trial,2017_May_26_1850,
,,0.62,"[6.75, 0]",/sounds/legit/right100.wav,,,,,3,8,113,19,,,,,,,,,,,,,,,right,0.56908416748,,,,,participant8,24,59.8615890287,F,trial,2017_May_26_1850,
,,0.62,"[-6.75, 0]",/sounds/legit/left100.wav,,,,,3,9,114,34,,,,,,,,,,,,,,,left,0.904203176498,,,,,participant8,24,59.8615890287,F,trial,2017_May_26_1850,
,,0.36,"[-6.75, 0]",/sounds/legit/left100.wav,,,,,3,10,115,32,,,,,,,,,,,,,,,left,0.786098003387,,,,,participant8,24,59.8615890287,F,trial,2017_May_26_1850,
,,0.62,"[4.5, 0]",/sounds/legit/right70.wav,,,,,3,11,116,14,,,,,,,,,,,,,,,right,0.719584941864,,,,,participant8,24,59.8615890287,F,trial,2017_May_26_1850,
,,0.1,"[4.5, 0]",/sounds/legit/right70.wav,,,,,3,12,117,10,,,,,,,,,,,,,,,right,0.853250026703,,,,,participant8,24,59.8615890287,F,trial,2017_May_26_1850,
,,0.36,"[6.75, 0]",/sounds/legit/right100.wav,,,,,3,13,118,17,,,,,,,,,,,,,,,right,0.752976894379,,,,,participant8,24,59.8615890287,F,trial,2017_May_26_1850,
,,0.49,"[4.5, 0]",/sounds/legit/right70.wav,,,,,3,14,119,13,,,,,,,,,,,,,,,right,0.669674873352,,,,,participant8,24,59.8615890287,F,trial,2017_May_26_1850,
,,0.1,"[-4.5, 0]",/sounds/legit/left70.wav,,,,,3,15,120,25,,,,,,,,,,,,,,,left,0.585693836212,,,,,participant8,24,59.8615890287,F,trial,2017_May_26_1850,
,,0.62,"[2.25, 0]",/sounds/legit/right35.wav,,,,,3,16,121,9,,,,,,,,,,,,,,,right,0.569154977798,,,,,participant8,24,59.8615890287,F,trial,2017_May_26_1850,
,,0.36,"[4.5, 0]",/sounds/legit/right70.wav,,,,,3,17,122,12,,,,,,,,,,,,,,,right,0.736137866974,,,,,participant8,24,59.8615890287,F,trial,2017_May_26_1850,
,,0.1,"[6.75, 0]",/sounds/legit/right100.wav,,,,,3,18,123,15,,,,,,,,,,,,,,,right,0.619302988052,,,,,participant8,24,59.8615890287,F,trial,2017_May_26_1850,
,,0.23,"[-2.25, 0]",/sounds/legit/left35.wav,,,,,3,19,124,21,,,,,,,,,,,,,,,left,0.55225110054,,,,,participant8,24,59.8615890287,F,trial,2017_May_26_1850,
,,0.1,"[-6.75, 0]",/sounds/legit/left100.wav,,,,,3,20,125,30,,,,,,,,,,,,,,,left,0.602609872818,,,,,participant8,24,59.8615890287,F,trial,2017_May_26_1850,
,,0.36,"[-2.25, 0]",/sounds/legit/left35.wav,,,,,3,21,126,22,,,,,,,,,,,,,,,left,0.769529104233,,,,,participant8,24,59.8615890287,F,trial,2017_May_26_1850,
,,0.49,"[-2.25, 0]",/sounds/legit/left35.wav,,,,,3,22,127,23,,,,,,,,,,,,,,,left,0.602781057358,,,,,participant8,24,59.8615890287,F,trial,2017_May_26_1850,
,,0.23,"[-6.75, 0]",/sounds/legit/left100.wav,,,,,3,23,128,31,,,,,,,,,,,,,,,left,0.736111879349,,,,,participant8,24,59.8615890287,F,trial,2017_May_26_1850,
,,0.23,"[0, 0]",/sounds/legit/equal.wav,,,,,3,24,129,1,,,,,,,,,,,,,,,left,0.836687088013,,,,,participant8,24,59.8615890287,F,trial,2017_May_26_1850,
,,0.23,"[-4.5, 0]",/sounds/legit/left70.wav,,,,,3,25,130,26,,,,,,,,,,,,,,,left,0.903071165085,,,,,participant8,24,59.8615890287,F,trial,2017_May_26_1850,
,,0.1,"[-2.25, 0]",/sounds/legit/left35.wav,,,,,3,26,131,20,,,,,,,,,,,,,,,left,0.685949087143,,,,,participant8,24,59.8615890287,F,trial,2017_May_26_1850,
,,0.49,"[6.75, 0]",/sounds/legit/right100.wav,,,,,3,27,132,18,,,,,,,,,,,,,,,right,0.81947517395,,,,,participant8,24,59.8615890287,F,trial,2017_May_26_1850,
,,0.23,"[2.25, 0]",/sounds/legit/right35.wav,,,,,3,28,133,6,,,,,,,,,,,,,,,right,0.803313970566,,,,,participant8,24,59.8615890287,F,trial,2017_May_26_1850,
,,0.62,"[-4.5, 0]",/sounds/legit/left70.wav,,,,,3,29,134,29,,,,,,,,,,,,,,,left,0.836740016937,,,,,participant8,24,59.8615890287,F,trial,2017_May_26_1850,
,,0.49,"[2.25, 0]",/sounds/legit/right35.wav,,,,,3,30,135,8,,,,,,,,,,,,,,,right,0.886725902557,,,,,participant8,24,59.8615890287,F,trial,2017_May_26_1850,
,,0.62,"[-2.25, 0]",/sounds/legit/left35.wav,,,,,3,31,136,24,,,,,,,,,,,,,,,left,0.769596099854,,,,,participant8,24,59.8615890287,F,trial,2017_May_26_1850,
,,0.1,"[2.25, 0]",/sounds/legit/right35.wav,,,,,3,32,137,5,,,,,,,,,,,,,,,right,0.853000879288,,,,,participant8,24,59.8615890287,F,trial,2017_May_26_1850,
,,0.49,"[-6.75, 0]",/sounds/legit/left100.wav,,,,,3,33,138,33,,,,,,,,,,,,,,,left,0.636002779007,,,,,participant8,24,59.8615890287,F,trial,2017_May_26_1850,
,,0.62,"[0, 0]",/sounds/legit/equal.wav,,,,,3,34,139,4,,,,,,,,,,,,,,,left,0.886554002762,,,,,participant8,24,59.8615890287,F,trial,2017_May_26_1850,
,,0.1,"[4.5, 0]",/sounds/legit/right70.wav,,,,,4,0,140,10,,,,,,,,,,,,,,,right,0.65274310112,,,,,participant8,24,59.8615890287,F,trial,2017_May_26_1850,
,,0.36,"[-2.25, 0]",/sounds/legit/left35.wav,,,,,4,1,141,22,,,,,,,,,,,,,,,left,0.669167041779,,,,,participant8,24,59.8615890287,F,trial,2017_May_26_1850,
,,0.36,"[0, 0]",/sounds/legit/equal.wav,,,,,4,2,142,2,,,,,,,,,,,,,,,left,0.936830997467,,,,,participant8,24,59.8615890287,F,trial,2017_May_26_1850,
,,0.49,"[2.25, 0]",/sounds/legit/right35.wav,,,,,4,3,143,8,,,,,,,,,,,,,,,right,0.786630868912,,,,,participant8,24,59.8615890287,F,trial,2017_May_26_1850,
,,0.23,"[2.25, 0]",/sounds/legit/right35.wav,,,,,4,4,144,6,,,,,,,,,,,,,,,right,1.05356001854,,,,,participant8,24,59.8615890287,F,trial,2017_May_26_1850,
,,0.23,"[-2.25, 0]",/sounds/legit/left35.wav,,,,,4,5,145,21,,,,,,,,,,,,,,,left,0.66966676712,,,,,participant8,24,59.8615890287,F,trial,2017_May_26_1850,
,,0.1,"[-2.25, 0]",/sounds/legit/left35.wav,,,,,4,6,146,20,,,,,,,,,,,,,,,left,0.769842147827,,,,,participant8,24,59.8615890287,F,trial,2017_May_26_1850,
,,0.36,"[6.75, 0]",/sounds/legit/right100.wav,,,,,4,7,147,17,,,,,,,,,,,,,,,right,0.669034004211,,,,,participant8,24,59.8615890287,F,trial,2017_May_26_1850,
,,0.23,"[6.75, 0]",/sounds/legit/right100.wav,,,,,4,8,148,16,,,,,,,,,,,,,,,right,0.769791126251,,,,,participant8,24,59.8615890287,F,trial,2017_May_26_1850,
,,0.62,"[-4.5, 0]",/sounds/legit/left70.wav,,,,,4,9,149,29,,,,,,,,,,,,,,,left,1.42109799385,,,,,participant8,24,59.8615890287,F,trial,2017_May_26_1850,
,,0.62,"[4.5, 0]",/sounds/legit/right70.wav,,,,,4,10,150,14,,,,,,,,,,,,,,,right,0.903211116791,,,,,participant8,24,59.8615890287,F,trial,2017_May_26_1850,
,,0.49,"[0, 0]",/sounds/legit/equal.wav,,,,,4,11,151,3,,,,,,,,,,,,,,,left,0.903506040573,,,,,participant8,24,59.8615890287,F,trial,2017_May_26_1850,
,,0.49,"[4.5, 0]",/sounds/legit/right70.wav,,,,,4,12,152,13,,,,,,,,,,,,,,,left,2.12297797203,,,,,participant8,24,59.8615890287,F,trial,2017_May_26_1850,
,,0.1,"[0, 0]",/sounds/legit/equal.wav,,,,,4,13,153,0,,,,,,,,,,,,,,,left,0.919760227203,,,,,participant8,24,59.8615890287,F,trial,2017_May_26_1850,
,,0.23,"[-6.75, 0]",/sounds/legit/left100.wav,,,,,4,14,154,31,,,,,,,,,,,,,,,left,0.652894973755,,,,,participant8,24,59.8615890287,F,trial,2017_May_26_1850,
,,0.36,"[-4.5, 0]",/sounds/legit/left70.wav,,,,,4,15,155,27,,,,,,,,,,,,,,,left,0.602710008621,,,,,participant8,24,59.8615890287,F,trial,2017_May_26_1850,
,,0.36,"[2.25, 0]",/sounds/legit/right35.wav,,,,,4,16,156,7,,,,,,,,,,,,,,,right,0.769711971283,,,,,participant8,24,59.8615890287,F,trial,2017_May_26_1850,
,,0.49,"[-2.25, 0]",/sounds/legit/left35.wav,,,,,4,17,157,23,,,,,,,,,,,,,,,left,0.736970186234,,,,,participant8,24,59.8615890287,F,trial,2017_May_26_1850,
,,0.62,"[-6.75, 0]",/sounds/legit/left100.wav,,,,,4,18,158,34,,,,,,,,,,,,,,,left,0.719480037689,,,,,participant8,24,59.8615890287,F,trial,2017_May_26_1850,
,,0.62,"[0, 0]",/sounds/legit/equal.wav,,,,,4,19,159,4,,,,,,,,,,,,,,,left,0.986842155457,,,,,participant8,24,59.8615890287,F,trial,2017_May_26_1850,
,,0.1,"[-6.75, 0]",/sounds/legit/left100.wav,,,,,4,20,160,30,,,,,,,,,,,,,,,left,0.686639070511,,,,,participant8,24,59.8615890287,F,trial,2017_May_26_1850,
,,0.23,"[-4.5, 0]",/sounds/legit/left70.wav,,,,,4,21,161,26,,,,,,,,,,,,,,,left,0.735393047333,,,,,participant8,24,59.8615890287,F,trial,2017_May_26_1850,
,,0.62,"[6.75, 0]",/sounds/legit/right100.wav,,,,,4,22,162,19,,,,,,,,,,,,,,,right,0.636019945145,,,,,participant8,24,59.8615890287,F,trial,2017_May_26_1850,
,,0.1,"[6.75, 0]",/sounds/legit/right100.wav,,,,,4,23,163,15,,,,,,,,,,,,,,,right,0.519090890884,,,,,participant8,24,59.8615890287,F,trial,2017_May_26_1850,
,,0.1,"[2.25, 0]",/sounds/legit/right35.wav,,,,,4,24,164,5,,,,,,,,,,,,,,,right,0.635978937149,,,,,participant8,24,59.8615890287,F,trial,2017_May_26_1850,
,,0.49,"[-4.5, 0]",/sounds/legit/left70.wav,,,,,4,25,165,28,,,,,,,,,,,,,,,left,0.686207056046,,,,,participant8,24,59.8615890287,F,trial,2017_May_26_1850,
,,0.1,"[-4.5, 0]",/sounds/legit/left70.wav,,,,,4,26,166,25,,,,,,,,,,,,,,,left,0.602327108383,,,,,participant8,24,59.8615890287,F,trial,2017_May_26_1850,
,,0.62,"[-2.25, 0]",/sounds/legit/left35.wav,,,,,4,27,167,24,,,,,,,,,,,,,,,left,0.669409990311,,,,,participant8,24,59.8615890287,F,trial,2017_May_26_1850,
,,0.49,"[-6.75, 0]",/sounds/legit/left100.wav,,,,,4,28,168,33,,,,,,,,,,,,,,,left,0.63604593277,,,,,participant8,24,59.8615890287,F,trial,2017_May_26_1850,
,,0.62,"[2.25, 0]",/sounds/legit/right35.wav,,,,,4,29,169,9,,,,,,,,,,,,,,,right,0.953295946121,,,,,participant8,24,59.8615890287,F,trial,2017_May_26_1850,
,,0.36,"[4.5, 0]",/sounds/legit/right70.wav,,,,,4,30,170,12,,,,,,,,,,,,,,,right,1.10402297974,,,,,participant8,24,59.8615890287,F,trial,2017_May_26_1850,
,,0.23,"[0, 0]",/sounds/legit/equal.wav,,,,,4,31,171,1,,,,,,,,,,,,,,,left,0.769536018372,,,,,participant8,24,59.8615890287,F,trial,2017_May_26_1850,
,,0.23,"[4.5, 0]",/sounds/legit/right70.wav,,,,,4,32,172,11,,,,,,,,,,,,,,,right,0.618556976318,,,,,participant8,24,59.8615890287,F,trial,2017_May_26_1850,
,,0.36,"[-6.75, 0]",/sounds/legit/left100.wav,,,,,4,33,173,32,,,,,,,,,,,,,,,left,0.719969987869,,,,,participant8,24,59.8615890287,F,trial,2017_May_26_1850,
,,0.49,"[6.75, 0]",/sounds/legit/right100.wav,,,,,4,34,174,18,,,,,,,,,,,,,,,right,0.819709062576,,,,,participant8,24,59.8615890287,F,trial,2017_May_26_1850,
,,0.1,"[2.25, 0]",/sounds/legit/right35.wav,,,,,5,0,175,5,,,,,,,,,,,,,,,right,0.819727897644,,,,,participant8,24,59.8615890287,F,trial,2017_May_26_1850,
,,0.62,"[-2.25, 0]",/sounds/legit/left35.wav,,,,,5,1,176,24,,,,,,,,,,,,,,,left,0.986798048019,,,,,participant8,24,59.8615890287,F,trial,2017_May_26_1850,
,,0.36,"[4.5, 0]",/sounds/legit/right70.wav,,,,,5,2,177,12,,,,,,,,,,,,,,,right,0.769640207291,,,,,participant8,24,59.8615890287,F,trial,2017_May_26_1850,
,,0.62,"[-4.5, 0]",/sounds/legit/left70.wav,,,,,5,3,178,29,,,,,,,,,,,,,,,left,0.886448144913,,,,,participant8,24,59.8615890287,F,trial,2017_May_26_1850,
,,0.36,"[6.75, 0]",/sounds/legit/right100.wav,,,,,5,4,179,17,,,,,,,,,,,,,,,right,0.953164100647,,,,,participant8,24,59.8615890287,F,trial,2017_May_26_1850,
,,0.49,"[-4.5, 0]",/sounds/legit/left70.wav,,,,,5,5,180,28,,,,,,,,,,,,,,,left,0.83636713028,,,,,participant8,24,59.8615890287,F,trial,2017_May_26_1850,
,,0.36,"[2.25, 0]",/sounds/legit/right35.wav,,,,,5,6,181,7,,,,,,,,,,,,,,,right,0.936722993851,,,,,participant8,24,59.8615890287,F,trial,2017_May_26_1850,
,,0.1,"[4.5, 0]",/sounds/legit/right70.wav,,,,,5,7,182,10,,,,,,,,,,,,,,,right,0.819692134857,,,,,participant8,24,59.8615890287,F,trial,2017_May_26_1850,
,,0.1,"[-6.75, 0]",/sounds/legit/left100.wav,,,,,5,8,183,30,,,,,,,,,,,,,,,left,0.986669063568,,,,,participant8,24,59.8615890287,F,trial,2017_May_26_1850,
,,0.36,"[0, 0]",/sounds/legit/equal.wav,,,,,5,9,184,2,,,,,,,,,,,,,,,left,0.853249073029,,,,,participant8,24,59.8615890287,F,trial,2017_May_26_1850,
,,0.49,"[-2.25, 0]",/sounds/legit/left35.wav,,,,,5,10,185,23,,,,,,,,,,,,,,,left,0.702811002731,,,,,participant8,24,59.8615890287,F,trial,2017_May_26_1850,
,,0.62,"[0, 0]",/sounds/legit/equal.wav,,,,,5,11,186,4,,,,,,,,,,,,,,,left,1.27070522308,,,,,participant8,24,59.8615890287,F,trial,2017_May_26_1850,
,,0.23,"[-2.25, 0]",/sounds/legit/left35.wav,,,,,5,12,187,21,,,,,,,,,,,,,,,left,0.769729137421,,,,,participant8,24,59.8615890287,F,trial,2017_May_26_1850,
,,0.49,"[6.75, 0]",/sounds/legit/right100.wav,,,,,5,13,188,18,,,,,,,,,,,,,,,right,0.803086042404,,,,,participant8,24,59.8615890287,F,trial,2017_May_26_1850,
,,0.49,"[0, 0]",/sounds/legit/equal.wav,,,,,5,14,189,3,,,,,,,,,,,,,,,left,0.619390964508,,,,,participant8,24,59.8615890287,F,trial,2017_May_26_1850,
,,0.1,"[-2.25, 0]",/sounds/legit/left35.wav,,,,,5,15,190,20,,,,,,,,,,,,,,,left,0.636391162872,,,,,participant8,24,59.8615890287,F,trial,2017_May_26_1850,
,,0.23,"[0, 0]",/sounds/legit/equal.wav,,,,,5,16,191,1,,,,,,,,,,,,,,,left,0.703120946884,,,,,participant8,24,59.8615890287,F,trial,2017_May_26_1850,
,,0.62,"[-6.75, 0]",/sounds/legit/left100.wav,,,,,5,17,192,34,,,,,,,,,,,,,,,left,0.669515132904,,,,,participant8,24,59.8615890287,F,trial,2017_May_26_1850,
,,0.1,"[0, 0]",/sounds/legit/equal.wav,,,,,5,18,193,0,,,,,,,,,,,,,,,left,0.769973993301,,,,,participant8,24,59.8615890287,F,trial,2017_May_26_1850,
,,0.62,"[6.75, 0]",/sounds/legit/right100.wav,,,,,5,19,194,19,,,,,,,,,,,,,,,right,0.953411817551,,,,,participant8,24,59.8615890287,F,trial,2017_May_26_1850,
,,0.62,"[4.5, 0]",/sounds/legit/right70.wav,,,,,5,20,195,14,,,,,,,,,,,,,,,right,1.00390982628,,,,,participant8,24,59.8615890287,F,trial,2017_May_26_1850,
,,0.1,"[6.75, 0]",/sounds/legit/right100.wav,,,,,5,21,196,15,,,,,,,,,,,,,,,right,0.651617050171,,,,,participant8,24,59.8615890287,F,trial,2017_May_26_1850,
,,0.49,"[2.25, 0]",/sounds/legit/right35.wav,,,,,5,22,197,8,,,,,,,,,,,,,,,right,0.703174829483,,,,,participant8,24,59.8615890287,F,trial,2017_May_26_1850,
,,0.49,"[4.5, 0]",/sounds/legit/right70.wav,,,,,5,23,198,13,,,,,,,,,,,,,,,right,0.869719982147,,,,,participant8,24,59.8615890287,F,trial,2017_May_26_1850,
,,0.23,"[6.75, 0]",/sounds/legit/right100.wav,,,,,5,24,199,16,,,,,,,,,,,,,,,right,0.769720077515,,,,,participant8,24,59.8615890287,F,trial,2017_May_26_1850,
,,0.62,"[2.25, 0]",/sounds/legit/right35.wav,,,,,5,25,200,9,,,,,,,,,,,,,,,right,0.986670970917,,,,,participant8,24,59.8615890287,F,trial,2017_May_26_1850,
,,0.23,"[4.5, 0]",/sounds/legit/right70.wav,,,,,5,26,201,11,,,,,,,,,,,,,,,right,0.987184047699,,,,,participant8,24,59.8615890287,F,trial,2017_May_26_1850,
,,0.36,"[-4.5, 0]",/sounds/legit/left70.wav,,,,,5,27,202,27,,,,,,,,,,,,,,,left,0.718770027161,,,,,participant8,24,59.8615890287,F,trial,2017_May_26_1850,
,,0.1,"[-4.5, 0]",/sounds/legit/left70.wav,,,,,5,28,203,25,,,,,,,,,,,,,,,left,0.753062963486,,,,,participant8,24,59.8615890287,F,trial,2017_May_26_1850,
,,0.23,"[-4.5, 0]",/sounds/legit/left70.wav,,,,,5,29,204,26,,,,,,,,,,,,,,,left,0.969942808151,,,,,participant8,24,59.8615890287,F,trial,2017_May_26_1850,
,,0.23,"[-6.75, 0]",/sounds/legit/left100.wav,,,,,5,30,205,31,,,,,,,,,,,,,,,left,0.635707139969,,,,,participant8,24,59.8615890287,F,trial,2017_May_26_1850,
,,0.23,"[2.25, 0]",/sounds/legit/right35.wav,,,,,5,31,206,6,,,,,,,,,,,,,,,right,0.869771957397,,,,,participant8,24,59.8615890287,F,trial,2017_May_26_1850,
,,0.36,"[-6.75, 0]",/sounds/legit/left100.wav,,,,,5,32,207,32,,,,,,,,,,,,,,,left,0.669335126877,,,,,participant8,24,59.8615890287,F,trial,2017_May_26_1850,
,,0.49,"[-6.75, 0]",/sounds/legit/left100.wav,,,,,5,33,208,33,,,,,,,,,,,,,,,left,0.652812957764,,,,,participant8,24,59.8615890287,F,trial,2017_May_26_1850,
,,0.36,"[-2.25, 0]",/sounds/legit/left35.wav,,,,,5,34,209,22,,,,,,,,,,,,,,,left,0.752925157547,,,,,participant8,24,59.8615890287,F,trial,2017_May_26_1850,
,,0.23,"[2.25, 0]",/sounds/legit/right35.wav,,,,,6,0,210,6,,,,,,,,,,,,,,,right,0.919753074646,,,,,participant8,24,59.8615890287,F,trial,2017_May_26_1850,
,,0.36,"[6.75, 0]",/sounds/legit/right100.wav,,,,,6,1,211,17,,,,,,,,,,,,,,,right,0.936857938766,,,,,participant8,24,59.8615890287,F,trial,2017_May_26_1850,
,,0.49,"[2.25, 0]",/sounds/legit/right35.wav,,,,,6,2,212,8,,,,,,,,,,,,,,,right,0.886798858643,,,,,participant8,24,59.8615890287,F,trial,2017_May_26_1850,
,,0.36,"[2.25, 0]",/sounds/legit/right35.wav,,,,,6,3,213,7,,,,,,,,,,,,,,,right,1.07070589066,,,,,participant8,24,59.8615890287,F,trial,2017_May_26_1850,
,,0.23,"[0, 0]",/sounds/legit/equal.wav,,,,,6,4,214,1,,,,,,,,,,,,,,,left,0.819741010666,,,,,participant8,24,59.8615890287,F,trial,2017_May_26_1850,
,,0.23,"[4.5, 0]",/sounds/legit/right70.wav,,,,,6,5,215,11,,,,,,,,,,,,,,,right,0.752887010574,,,,,participant8,24,59.8615890287,F,trial,2017_May_26_1850,
,,0.1,"[0, 0]",/sounds/legit/equal.wav,,,,,6,6,216,0,,,,,,,,,,,,,,,left,0.786458015442,,,,,participant8,24,59.8615890287,F,trial,2017_May_26_1850,
,,0.62,"[6.75, 0]",/sounds/legit/right100.wav,,,,,6,7,217,19,,,,,,,,,,,,,,,right,0.85299706459,,,,,participant8,24,59.8615890287,F,trial,2017_May_26_1850,
,,0.62,"[4.5, 0]",/sounds/legit/right70.wav,,,,,6,8,218,14,,,,,,,,,,,,,,,right,1.15297603607,,,,,participant8,24,59.8615890287,F,trial,2017_May_26_1850,
,,0.49,"[-2.25, 0]",/sounds/legit/left35.wav,,,,,6,9,219,23,,,,,,,,,,,,,,,left,0.752916097641,,,,,participant8,24,59.8615890287,F,trial,2017_May_26_1850,
,,0.49,"[-4.5, 0]",/sounds/legit/left70.wav,,,,,6,10,220,28,,,,,,,,,,,,,,,left,0.819791078568,,,,,participant8,24,59.8615890287,F,trial,2017_May_26_1850,
,,0.1,"[-4.5, 0]",/sounds/legit/left70.wav,,,,,6,11,221,25,,,,,,,,,,,,,,,left,0.853483915329,,,,,participant8,24,59.8615890287,F,trial,2017_May_26_1850,
,,0.62,"[-6.75, 0]",/sounds/legit/left100.wav,,,,,6,12,222,34,,,,,,,,,,,,,,,left,0.803115844727,,,,,participant8,24,59.8615890287,F,trial,2017_May_26_1850,
,,0.36,"[-6.75, 0]",/sounds/legit/left100.wav,,,,,6,13,223,32,,,,,,,,,,,,,,,left,0.719706058502,,,,,participant8,24,59.8615890287,F,trial,2017_May_26_1850,
,,0.1,"[6.75, 0]",/sounds/legit/right100.wav,,,,,6,14,224,15,,,,,,,,,,,,,,,right,0.686213970184,,,,,participant8,24,59.8615890287,F,trial,2017_May_26_1850,
,,0.23,"[-4.5, 0]",/sounds/legit/left70.wav,,,,,6,15,225,26,,,,,,,,,,,,,,,left,0.669481992722,,,,,participant8,24,59.8615890287,F,trial,2017_May_26_1850,
,,0.49,"[-6.75, 0]",/sounds/legit/left100.wav,,,,,6,16,226,33,,,,,,,,,,,,,,,left,0.686521053314,,,,,participant8,24,59.8615890287,F,trial,2017_May_26_1850,
,,0.62,"[-4.5, 0]",/sounds/legit/left70.wav,,,,,6,17,227,29,,,,,,,,,,,,,,,left,0.92049908638,,,,,participant8,24,59.8615890287,F,trial,2017_May_26_1850,
,,0.36,"[4.5, 0]",/sounds/legit/right70.wav,,,,,6,18,228,12,,,,,,,,,,,,,,,right,0.870221853256,,,,,participant8,24,59.8615890287,F,trial,2017_May_26_1850,
,,0.1,"[-6.75, 0]",/sounds/legit/left100.wav,,,,,6,19,229,30,,,,,,,,,,,,,,,left,0.786426067352,,,,,participant8,24,59.8615890287,F,trial,2017_May_26_1850,
,,0.23,"[-2.25, 0]",/sounds/legit/left35.wav,,,,,6,20,230,21,,,,,,,,,,,,,,,left,0.869690895081,,,,,participant8,24,59.8615890287,F,trial,2017_May_26_1850,
,,0.1,"[4.5, 0]",/sounds/legit/right70.wav,,,,,6,21,231,10,,,,,,,,,,,,,,,right,0.753161907196,,,,,participant8,24,59.8615890287,F,trial,2017_May_26_1850,
,,0.62,"[-2.25, 0]",/sounds/legit/left35.wav,,,,,6,22,232,24,,,,,,,,,,,,,,,left,0.786025047302,,,,,participant8,24,59.8615890287,F,trial,2017_May_26_1850,
,,0.36,"[-2.25, 0]",/sounds/legit/left35.wav,,,,,6,23,233,22,,,,,,,,,,,,,,,left,0.752871990204,,,,,participant8,24,59.8615890287,F,trial,2017_May_26_1850,
,,0.1,"[2.25, 0]",/sounds/legit/right35.wav,,,,,6,24,234,5,,,,,,,,,,,,,,,right,0.920047998428,,,,,participant8,24,59.8615890287,F,trial,2017_May_26_1850,
,,0.62,"[0, 0]",/sounds/legit/equal.wav,,,,,6,25,235,4,,,,,,,,,,,,,,,right,2.03908705711,,,,,participant8,24,59.8615890287,F,trial,2017_May_26_1850,
,,0.36,"[0, 0]",/sounds/legit/equal.wav,,,,,6,26,236,2,,,,,,,,,,,,,,,left,0.986635923386,,,,,participant8,24,59.8615890287,F,trial,2017_May_26_1850,
,,0.49,"[0, 0]",/sounds/legit/equal.wav,,,,,6,27,237,3,,,,,,,,,,,,,,,left,1.62143206596,,,,,participant8,24,59.8615890287,F,trial,2017_May_26_1850,
,,0.62,"[2.25, 0]",/sounds/legit/right35.wav,,,,,6,28,238,9,,,,,,,,,,,,,,,right,0.953298091888,,,,,participant8,24,59.8615890287,F,trial,2017_May_26_1850,
,,0.36,"[-4.5, 0]",/sounds/legit/left70.wav,,,,,6,29,239,27,,,,,,,,,,,,,,,left,0.853207111359,,,,,participant8,24,59.8615890287,F,trial,2017_May_26_1850,
,,0.1,"[-2.25, 0]",/sounds/legit/left35.wav,,,,,6,30,240,20,,,,,,,,,,,,,,,left,0.719508886337,,,,,participant8,24,59.8615890287,F,trial,2017_May_26_1850,
,,0.23,"[-6.75, 0]",/sounds/legit/left100.wav,,,,,6,31,241,31,,,,,,,,,,,,,,,left,0.753050088882,,,,,participant8,24,59.8615890287,F,trial,2017_May_26_1850,
,,0.49,"[6.75, 0]",/sounds/legit/right100.wav,,,,,6,32,242,18,,,,,,,,,,,,,,,right,0.837063074112,,,,,participant8,24,59.8615890287,F,trial,2017_May_26_1850,
,,0.49,"[4.5, 0]",/sounds/legit/right70.wav,,,,,6,33,243,13,,,,,,,,,,,,,,,right,0.853083848953,,,,,participant8,24,59.8615890287,F,trial,2017_May_26_1850,
,,0.23,"[6.75, 0]",/sounds/legit/right100.wav,,,,,6,34,244,16,,,,,,,,,,,,,,,right,0.802870988846,,,,,participant8,24,59.8615890287,F,trial,2017_May_26_1850,
,,0.1,"[0, 0]",/sounds/legit/equal.wav,,,,,7,0,245,0,,,,,,,,,,,,,,,left,0.786612987518,,,,,participant8,24,59.8615890287,F,trial,2017_May_26_1850,
,,0.1,"[-6.75, 0]",/sounds/legit/left100.wav,,,,,7,1,246,30,,,,,,,,,,,,,,,left,0.753252983093,,,,,participant8,24,59.8615890287,F,trial,2017_May_26_1850,
,,0.36,"[6.75, 0]",/sounds/legit/right100.wav,,,,,7,2,247,17,,,,,,,,,,,,,,,right,0.702543020248,,,,,participant8,24,59.8615890287,F,trial,2017_May_26_1850,
,,0.36,"[2.25, 0]",/sounds/legit/right35.wav,,,,,7,3,248,7,,,,,,,,,,,,,,,right,0.853668928146,,,,,participant8,24,59.8615890287,F,trial,2017_May_26_1850,
,,0.1,"[2.25, 0]",/sounds/legit/right35.wav,,,,,7,4,249,5,,,,,,,,,,,,,,,right,0.719444036484,,,,,participant8,24,59.8615890287,F,trial,2017_May_26_1850,
,,0.62,"[6.75, 0]",/sounds/legit/right100.wav,,,,,7,5,250,19,,,,,,,,,,,,,,,right,0.702743053436,,,,,participant8,24,59.8615890287,F,trial,2017_May_26_1850,
,,0.23,"[2.25, 0]",/sounds/legit/right35.wav,,,,,7,6,251,6,,,,,,,,,,,,,,,right,0.769551038742,,,,,participant8,24,59.8615890287,F,trial,2017_May_26_1850,
,,0.49,"[2.25, 0]",/sounds/legit/right35.wav,,,,,7,7,252,8,,,,,,,,,,,,,,,right,1.12086009979,,,,,participant8,24,59.8615890287,F,trial,2017_May_26_1850,
,,0.62,"[0, 0]",/sounds/legit/equal.wav,,,,,7,8,253,4,,,,,,,,,,,,,,,right,1.07031202316,,,,,participant8,24,59.8615890287,F,trial,2017_May_26_1850,
,,0.62,"[2.25, 0]",/sounds/legit/right35.wav,,,,,7,9,254,9,,,,,,,,,,,,,,,right,1.15387582779,,,,,participant8,24,59.8615890287,F,trial,2017_May_26_1850,
,,0.23,"[4.5, 0]",/sounds/legit/right70.wav,,,,,7,10,255,11,,,,,,,,,,,,,,,right,0.953315973282,,,,,participant8,24,59.8615890287,F,trial,2017_May_26_1850,
,,0.49,"[-4.5, 0]",/sounds/legit/left70.wav,,,,,7,11,256,28,,,,,,,,,,,,,,,left,0.868758916855,,,,,participant8,24,59.8615890287,F,trial,2017_May_26_1850,
,,0.62,"[4.5, 0]",/sounds/legit/right70.wav,,,,,7,12,257,14,,,,,,,,,,,,,,,right,0.718638896942,,,,,participant8,24,59.8615890287,F,trial,2017_May_26_1850,
,,0.49,"[0, 0]",/sounds/legit/equal.wav,,,,,7,13,258,3,,,,,,,,,,,,,,,right,1.15386795998,,,,,participant8,24,59.8615890287,F,trial,2017_May_26_1850,
,,0.1,"[-2.25, 0]",/sounds/legit/left35.wav,,,,,7,14,259,20,,,,,,,,,,,,,,,left,0.835555076599,,,,,participant8,24,59.8615890287,F,trial,2017_May_26_1850,
,,0.49,"[-6.75, 0]",/sounds/legit/left100.wav,,,,,7,15,260,33,,,,,,,,,,,,,,,left,0.819614887238,,,,,participant8,24,59.8615890287,F,trial,2017_May_26_1850,
,,0.23,"[6.75, 0]",/sounds/legit/right100.wav,,,,,7,16,261,16,,,,,,,,,,,,,,,right,0.719821929932,,,,,participant8,24,59.8615890287,F,trial,2017_May_26_1850,
,,0.36,"[0, 0]",/sounds/legit/equal.wav,,,,,7,17,262,2,,,,,,,,,,,,,,,left,0.869963884354,,,,,participant8,24,59.8615890287,F,trial,2017_May_26_1850,
,,0.49,"[4.5, 0]",/sounds/legit/right70.wav,,,,,7,18,263,13,,,,,,,,,,,,,,,right,0.852854967117,,,,,participant8,24,59.8615890287,F,trial,2017_May_26_1850,
,,0.23,"[-6.75, 0]",/sounds/legit/left100.wav,,,,,7,19,264,31,,,,,,,,,,,,,,,left,0.686265945435,,,,,participant8,24,59.8615890287,F,trial,2017_May_26_1850,
,,0.49,"[-2.25, 0]",/sounds/legit/left35.wav,,,,,7,20,265,23,,,,,,,,,,,,,,,left,0.886788845062,,,,,participant8,24,59.8615890287,F,trial,2017_May_26_1850,
,,0.23,"[0, 0]",/sounds/legit/equal.wav,,,,,7,21,266,1,,,,,,,,,,,,,,,left,1.10267186165,,,,,participant8,24,59.8615890287,F,trial,2017_May_26_1850,
,,0.23,"[-2.25, 0]",/sounds/legit/left35.wav,,,,,7,22,267,21,,,,,,,,,,,,,,,left,0.886600971222,,,,,participant8,24,59.8615890287,F,trial,2017_May_26_1850,
,,0.62,"[-2.25, 0]",/sounds/legit/left35.wav,,,,,7,23,268,24,,,,,,,,,,,,,,,left,0.920166969299,,,,,participant8,24,59.8615890287,F,trial,2017_May_26_1850,
,,0.36,"[-4.5, 0]",/sounds/legit/left70.wav,,,,,7,24,269,27,,,,,,,,,,,,,,,left,0.70278096199,,,,,participant8,24,59.8615890287,F,trial,2017_May_26_1850,
,,0.1,"[4.5, 0]",/sounds/legit/right70.wav,,,,,7,25,270,10,,,,,,,,,,,,,,,right,0.803143978119,,,,,participant8,24,59.8615890287,F,trial,2017_May_26_1850,
,,0.1,"[6.75, 0]",/sounds/legit/right100.wav,,,,,7,26,271,15,,,,,,,,,,,,,,,right,0.938066959381,,,,,participant8,24,59.8615890287,F,trial,2017_May_26_1850,
,,0.62,"[-6.75, 0]",/sounds/legit/left100.wav,,,,,7,27,272,34,,,,,,,,,,,,,,,left,1.10376000404,,,,,participant8,24,59.8615890287,F,trial,2017_May_26_1850,
,,0.62,"[-4.5, 0]",/sounds/legit/left70.wav,,,,,7,28,273,29,,,,,,,,,,,,,,,left,1.52122998238,,,,,participant8,24,59.8615890287,F,trial,2017_May_26_1850,
,,0.49,"[6.75, 0]",/sounds/legit/right100.wav,,,,,7,29,274,18,,,,,,,,,,,,,,,right,0.969897031784,,,,,participant8,24,59.8615890287,F,trial,2017_May_26_1850,
,,0.36,"[-6.75, 0]",/sounds/legit/left100.wav,,,,,7,30,275,32,,,,,,,,,,,,,,,left,0.652656078339,,,,,participant8,24,59.8615890287,F,trial,2017_May_26_1850,
,,0.1,"[-4.5, 0]",/sounds/legit/left70.wav,,,,,7,31,276,25,,,,,,,,,,,,,,,left,0.686007022858,,,,,participant8,24,59.8615890287,F,trial,2017_May_26_1850,
,,0.36,"[-2.25, 0]",/sounds/legit/left35.wav,,,,,7,32,277,22,,,,,,,,,,,,,,,left,0.953552007675,,,,,participant8,24,59.8615890287,F,trial,2017_May_26_1850,
,,0.36,"[4.5, 0]",/sounds/legit/right70.wav,,,,,7,33,278,12,,,,,,,,,,,,,,,right,0.786423921585,,,,,participant8,24,59.8615890287,F,trial,2017_May_26_1850,
,,0.23,"[-4.5, 0]",/sounds/legit/left70.wav,,,,,7,34,279,26,,,,,,,,,,,,,,,left,0.936697006226,,,,,participant8,24,59.8615890287,F,trial,2017_May_26_1850,
,,0.36,"[2.25, 0]",/sounds/legit/right35.wav,,,,,8,0,280,7,,,,,,,,,,,,,,,right,0.702758073807,,,,,participant8,24,59.8615890287,F,trial,2017_May_26_1850,
,,0.62,"[2.25, 0]",/sounds/legit/right35.wav,,,,,8,1,281,9,,,,,,,,,,,,,,,right,1.22052097321,,,,,participant8,24,59.8615890287,F,trial,2017_May_26_1850,
,,0.62,"[0, 0]",/sounds/legit/equal.wav,,,,,8,2,282,4,,,,,,,,,,,,,,,left,1.28746199608,,,,,participant8,24,59.8615890287,F,trial,2017_May_26_1850,
,,0.23,"[-4.5, 0]",/sounds/legit/left70.wav,,,,,8,3,283,26,,,,,,,,,,,,,,,left,1.00349092484,,,,,participant8,24,59.8615890287,F,trial,2017_May_26_1850,
,,0.23,"[0, 0]",/sounds/legit/equal.wav,,,,,8,4,284,1,,,,,,,,,,,,,,,left,0.936497926712,,,,,participant8,24,59.8615890287,F,trial,2017_May_26_1850,
,,0.23,"[6.75, 0]",/sounds/legit/right100.wav,,,,,8,5,285,16,,,,,,,,,,,,,,,right,0.887079954147,,,,,participant8,24,59.8615890287,F,trial,2017_May_26_1850,
,,0.23,"[4.5, 0]",/sounds/legit/right70.wav,,,,,8,6,286,11,,,,,,,,,,,,,,,right,0.802863121033,,,,,participant8,24,59.8615890287,F,trial,2017_May_26_1850,
,,0.36,"[0, 0]",/sounds/legit/equal.wav,,,,,8,7,287,2,,,,,,,,,,,,,,,left,0.970057010651,,,,,participant8,24,59.8615890287,F,trial,2017_May_26_1850,
,,0.62,"[-4.5, 0]",/sounds/legit/left70.wav,,,,,8,8,288,29,,,,,,,,,,,,,,,left,1.00347304344,,,,,participant8,24,59.8615890287,F,trial,2017_May_26_1850,
,,0.49,"[-4.5, 0]",/sounds/legit/left70.wav,,,,,8,9,289,28,,,,,,,,,,,,,,,left,0.753301143646,,,,,participant8,24,59.8615890287,F,trial,2017_May_26_1850,
,,0.1,"[6.75, 0]",/sounds/legit/right100.wav,,,,,8,10,290,15,,,,,,,,,,,,,,,right,0.68620300293,,,,,participant8,24,59.8615890287,F,trial,2017_May_26_1850,
,,0.1,"[-4.5, 0]",/sounds/legit/left70.wav,,,,,8,11,291,25,,,,,,,,,,,,,,,left,0.836194992065,,,,,participant8,24,59.8615890287,F,trial,2017_May_26_1850,
,,0.1,"[-2.25, 0]",/sounds/legit/left35.wav,,,,,8,12,292,20,,,,,,,,,,,,,,,left,0.769641160965,,,,,participant8,24,59.8615890287,F,trial,2017_May_26_1850,
,,0.49,"[6.75, 0]",/sounds/legit/right100.wav,,,,,8,13,293,18,,,,,,,,,,,,,,,right,0.869835138321,,,,,participant8,24,59.8615890287,F,trial,2017_May_26_1850,
,,0.49,"[-6.75, 0]",/sounds/legit/left100.wav,,,,,8,14,294,33,,,,,,,,,,,,,,,left,0.819720983505,,,,,participant8,24,59.8615890287,F,trial,2017_May_26_1850,
,,0.49,"[0, 0]",/sounds/legit/equal.wav,,,,,8,15,295,3,,,,,,,,,,,,,,,left,0.836616039276,,,,,participant8,24,59.8615890287,F,trial,2017_May_26_1850,
,,0.49,"[2.25, 0]",/sounds/legit/right35.wav,,,,,8,16,296,8,,,,,,,,,,,,,,,right,0.652445077896,,,,,participant8,24,59.8615890287,F,trial,2017_May_26_1850,
,,0.36,"[-4.5, 0]",/sounds/legit/left70.wav,,,,,8,17,297,27,,,,,,,,,,,,,,,left,0.787363052368,,,,,participant8,24,59.8615890287,F,trial,2017_May_26_1850,
,,0.1,"[4.5, 0]",/sounds/legit/right70.wav,,,,,8,18,298,10,,,,,,,,,,,,,,,right,0.80351805687,,,,,participant8,24,59.8615890287,F,trial,2017_May_26_1850,
,,0.49,"[4.5, 0]",/sounds/legit/right70.wav,,,,,8,19,299,13,,,,,,,,,,,,,,,right,0.953355073929,,,,,participant8,24,59.8615890287,F,trial,2017_May_26_1850,
,,0.62,"[4.5, 0]",/sounds/legit/right70.wav,,,,,8,20,300,14,,,,,,,,,,,,,,,right,0.8532371521,,,,,participant8,24,59.8615890287,F,trial,2017_May_26_1850,
,,0.1,"[-6.75, 0]",/sounds/legit/left100.wav,,,,,8,21,301,30,,,,,,,,,,,,,,,left,0.6028008461,,,,,participant8,24,59.8615890287,F,trial,2017_May_26_1850,
,,0.62,"[-2.25, 0]",/sounds/legit/left35.wav,,,,,8,22,302,24,,,,,,,,,,,,,,,left,0.786359071732,,,,,participant8,24,59.8615890287,F,trial,2017_May_26_1850,
,,0.62,"[6.75, 0]",/sounds/legit/right100.wav,,,,,8,23,303,19,,,,,,,,,,,,,,,right,0.852934122086,,,,,participant8,24,59.8615890287,F,trial,2017_May_26_1850,
,,0.23,"[-6.75, 0]",/sounds/legit/left100.wav,,,,,8,24,304,31,,,,,,,,,,,,,,,left,0.702794075012,,,,,participant8,24,59.8615890287,F,trial,2017_May_26_1850,
,,0.23,"[-2.25, 0]",/sounds/legit/left35.wav,,,,,8,25,305,21,,,,,,,,,,,,,,,left,0.903151035309,,,,,participant8,24,59.8615890287,F,trial,2017_May_26_1850,
,,0.36,"[-2.25, 0]",/sounds/legit/left35.wav,,,,,8,26,306,22,,,,,,,,,,,,,,,left,0.869400978088,,,,,participant8,24,59.8615890287,F,trial,2017_May_26_1850,
,,0.1,"[0, 0]",/sounds/legit/equal.wav,,,,,8,27,307,0,,,,,,,,,,,,,,,left,0.753109931946,,,,,participant8,24,59.8615890287,F,trial,2017_May_26_1850,
,,0.23,"[2.25, 0]",/sounds/legit/right35.wav,,,,,8,28,308,6,,,,,,,,,,,,,,,right,0.81865477562,,,,,participant8,24,59.8615890287,F,trial,2017_May_26_1850,
,,0.36,"[6.75, 0]",/sounds/legit/right100.wav,,,,,8,29,309,17,,,,,,,,,,,,,,,right,1.13719010353,,,,,participant8,24,59.8615890287,F,trial,2017_May_26_1850,
,,0.62,"[-6.75, 0]",/sounds/legit/left100.wav,,,,,8,30,310,34,,,,,,,,,,,,,,,left,0.920221805573,,,,,participant8,24,59.8615890287,F,trial,2017_May_26_1850,
,,0.36,"[4.5, 0]",/sounds/legit/right70.wav,,,,,8,31,311,12,,,,,,,,,,,,,,,right,0.8364341259,,,,,participant8,24,59.8615890287,F,trial,2017_May_26_1850,
,,0.49,"[-2.25, 0]",/sounds/legit/left35.wav,,,,,8,32,312,23,,,,,,,,,,,,,,,left,0.702664852142,,,,,participant8,24,59.8615890287,F,trial,2017_May_26_1850,
,,0.36,"[-6.75, 0]",/sounds/legit/left100.wav,,,,,8,33,313,32,,,,,,,,,,,,,,,left,0.819669008255,,,,,participant8,24,59.8615890287,F,trial,2017_May_26_1850,
,,0.1,"[2.25, 0]",/sounds/legit/right35.wav,,,,,8,34,314,5,,,,,,,,,,,,,,,right,0.836490154266,,,,,participant8,24,59.8615890287,F,trial,2017_May_26_1850,
,,0.23,"[-2.25, 0]",/sounds/legit/left35.wav,,,,,9,0,315,21,,,,,,,,,,,,,,,left,0.819809913635,,,,,participant8,24,59.8615890287,F,trial,2017_May_26_1850,
,,0.1,"[6.75, 0]",/sounds/legit/right100.wav,,,,,9,1,316,15,,,,,,,,,,,,,,,right,0.702819108963,,,,,participant8,24,59.8615890287,F,trial,2017_May_26_1850,
,,0.49,"[-6.75, 0]",/sounds/legit/left100.wav,,,,,9,2,317,33,,,,,,,,,,,,,,,left,0.669506072998,,,,,participant8,24,59.8615890287,F,trial,2017_May_26_1850,
,,0.49,"[-4.5, 0]",/sounds/legit/left70.wav,,,,,9,3,318,28,,,,,,,,,,,,,,,left,0.836765050888,,,,,participant8,24,59.8615890287,F,trial,2017_May_26_1850,
,,0.23,"[6.75, 0]",/sounds/legit/right100.wav,,,,,9,4,319,16,,,,,,,,,,,,,,,right,0.97040605545,,,,,participant8,24,59.8615890287,F,trial,2017_May_26_1850,
,,0.62,"[-6.75, 0]",/sounds/legit/left100.wav,,,,,9,5,320,34,,,,,,,,,,,,,,,left,0.953273057938,,,,,participant8,24,59.8615890287,F,trial,2017_May_26_1850,
,,0.36,"[2.25, 0]",/sounds/legit/right35.wav,,,,,9,6,321,7,,,,,,,,,,,,,,,right,0.703032970428,,,,,participant8,24,59.8615890287,F,trial,2017_May_26_1850,
,,0.49,"[-2.25, 0]",/sounds/legit/left35.wav,,,,,9,7,322,23,,,,,,,,,,,,,,,left,0.769834041595,,,,,participant8,24,59.8615890287,F,trial,2017_May_26_1850,
,,0.49,"[4.5, 0]",/sounds/legit/right70.wav,,,,,9,8,323,13,,,,,,,,,,,,,,,right,0.88645195961,,,,,participant8,24,59.8615890287,F,trial,2017_May_26_1850,
,,0.36,"[4.5, 0]",/sounds/legit/right70.wav,,,,,9,9,324,12,,,,,,,,,,,,,,,right,0.719944000244,,,,,participant8,24,59.8615890287,F,trial,2017_May_26_1850,
,,0.36,"[-2.25, 0]",/sounds/legit/left35.wav,,,,,9,10,325,22,,,,,,,,,,,,,,,left,0.686350822449,,,,,participant8,24,59.8615890287,F,trial,2017_May_26_1850,
,,0.62,"[0, 0]",/sounds/legit/equal.wav,,,,,9,11,326,4,,,,,,,,,,,,,,,left,0.870089054108,,,,,participant8,24,59.8615890287,F,trial,2017_May_26_1850,
,,0.23,"[0, 0]",/sounds/legit/equal.wav,,,,,9,12,327,1,,,,,,,,,,,,,,,left,0.836311817169,,,,,participant8,24,59.8615890287,F,trial,2017_May_26_1850,
,,0.62,"[2.25, 0]",/sounds/legit/right35.wav,,,,,9,13,328,9,,,,,,,,,,,,,,,right,0.953324079514,,,,,participant8,24,59.8615890287,F,trial,2017_May_26_1850,
,,0.49,"[2.25, 0]",/sounds/legit/right35.wav,,,,,9,14,329,8,,,,,,,,,,,,,,,right,0.853184938431,,,,,participant8,24,59.8615890287,F,trial,2017_May_26_1850,
,,0.36,"[-4.5, 0]",/sounds/legit/left70.wav,,,,,9,15,330,27,,,,,,,,,,,,,,,left,0.903177022934,,,,,participant8,24,59.8615890287,F,trial,2017_May_26_1850,
,,0.36,"[0, 0]",/sounds/legit/equal.wav,,,,,9,16,331,2,,,,,,,,,,,,,,,left,1.17044687271,,,,,participant8,24,59.8615890287,F,trial,2017_May_26_1850,
,,0.1,"[2.25, 0]",/sounds/legit/right35.wav,,,,,9,17,332,5,,,,,,,,,,,,,,,right,0.853440999985,,,,,participant8,24,59.8615890287,F,trial,2017_May_26_1850,
,,0.62,"[-4.5, 0]",/sounds/legit/left70.wav,,,,,9,18,333,29,,,,,,,,,,,,,,,left,0.970002889633,,,,,participant8,24,59.8615890287,F,trial,2017_May_26_1850,
,,0.23,"[2.25, 0]",/sounds/legit/right35.wav,,,,,9,19,334,6,,,,,,,,,,,,,,,right,0.752842903137,,,,,participant8,24,59.8615890287,F,trial,2017_May_26_1850,
,,0.49,"[0, 0]",/sounds/legit/equal.wav,,,,,9,20,335,3,,,,,,,,,,,,,,,left,1.27067899704,,,,,participant8,24,59.8615890287,F,trial,2017_May_26_1850,
,,0.62,"[-2.25, 0]",/sounds/legit/left35.wav,,,,,9,21,336,24,,,,,,,,,,,,,,,left,2.15626502037,,,,,participant8,24,59.8615890287,F,trial,2017_May_26_1850,
,,0.1,"[-2.25, 0]",/sounds/legit/left35.wav,,,,,9,22,337,20,,,,,,,,,,,,,,,left,0.903328180313,,,,,participant8,24,59.8615890287,F,trial,2017_May_26_1850,
,,0.36,"[-6.75, 0]",/sounds/legit/left100.wav,,,,,9,23,338,32,,,,,,,,,,,,,,,left,0.769404888153,,,,,participant8,24,59.8615890287,F,trial,2017_May_26_1850,
,,0.62,"[4.5, 0]",/sounds/legit/right70.wav,,,,,9,24,339,14,,,,,,,,,,,,,,,right,0.853092908859,,,,,participant8,24,59.8615890287,F,trial,2017_May_26_1850,
,,0.23,"[-6.75, 0]",/sounds/legit/left100.wav,,,,,9,25,340,31,,,,,,,,,,,,,,,left,0.686068058014,,,,,participant8,24,59.8615890287,F,trial,2017_May_26_1850,
,,0.23,"[4.5, 0]",/sounds/legit/right70.wav,,,,,9,26,341,11,,,,,,,,,,,,,,,right,0.652704000473,,,,,participant8,24,59.8615890287,F,trial,2017_May_26_1850,
,,0.1,"[-4.5, 0]",/sounds/legit/left70.wav,,,,,9,27,342,25,,,,,,,,,,,,,,,left,0.635882139206,,,,,participant8,24,59.8615890287,F,trial,2017_May_26_1850,
,,0.36,"[6.75, 0]",/sounds/legit/right100.wav,,,,,9,28,343,17,,,,,,,,,,,,,,,right,0.803146839142,,,,,participant8,24,59.8615890287,F,trial,2017_May_26_1850,
,,0.49,"[6.75, 0]",/sounds/legit/right100.wav,,,,,9,29,344,18,,,,,,,,,,,,,,,right,0.903213977814,,,,,participant8,24,59.8615890287,F,trial,2017_May_26_1850,
,,0.1,"[0, 0]",/sounds/legit/equal.wav,,,,,9,30,345,0,,,,,,,,,,,,,,,left,1.07025408745,,,,,participant8,24,59.8615890287,F,trial,2017_May_26_1850,
,,0.1,"[-6.75, 0]",/sounds/legit/left100.wav,,,,,9,31,346,30,,,,,,,,,,,,,,,left,0.886169910431,,,,,participant8,24,59.8615890287,F,trial,2017_May_26_1850,
,,0.23,"[-4.5, 0]",/sounds/legit/left70.wav,,,,,9,32,347,26,,,,,,,,,,,,,,,left,0.870007991791,,,,,participant8,24,59.8615890287,F,trial,2017_May_26_1850,
,,0.62,"[6.75, 0]",/sounds/legit/right100.wav,,,,,9,33,348,19,,,,,,,,,,,,,,,right,0.719397068024,,,,,participant8,24,59.8615890287,F,trial,2017_May_26_1850,
,,0.1,"[4.5, 0]",/sounds/legit/right70.wav,,,,,9,34,349,10,,,,,,,,,,,,,,,right,0.752763032913,,,,,participant8,24,59.8615890287,F,trial,2017_May_26_1850,
,,,,,,,,,,,,,,,,,,,,,,,,,,,,,space,48.5554871559,,,participant8,24,59.8615890287,F,trial,2017_May_26_1850,
,,0.62,"[4.5, 0]",/sounds/legit/right70.wav,,,,,,,,,0,0,0,14,,,,,,,,,,,,,,,right,0.769814968109,participant8,24,59.8615890287,F,trial,2017_May_26_1850,
,,0.36,"[-4.5, 0]",/sounds/legit/left70.wav,,,,,,,,,0,1,1,27,,,,,,,,,,,,,,,left,0.686151027679,participant8,24,59.8615890287,F,trial,2017_May_26_1850,
,,0.49,"[6.75, 0]",/sounds/legit/right100.wav,,,,,,,,,0,2,2,18,,,,,,,,,,,,,,,right,0.802973031998,participant8,24,59.8615890287,F,trial,2017_May_26_1850,
,,0.36,"[0, 0]",/sounds/legit/equal.wav,,,,,,,,,0,3,3,2,,,,,,,,,,,,,,,right,0.786067008972,participant8,24,59.8615890287,F,trial,2017_May_26_1850,
,,0.36,"[-2.25, 0]",/sounds/legit/left35.wav,,,,,,,,,0,4,4,22,,,,,,,,,,,,,,,left,0.886475086212,participant8,24,59.8615890287,F,trial,2017_May_26_1850,
,,0.62,"[-2.25, 0]",/sounds/legit/left35.wav,,,,,,,,,0,5,5,24,,,,,,,,,,,,,,,right,1.32094597816,participant8,24,59.8615890287,F,trial,2017_May_26_1850,
,,0.23,"[-2.25, 0]",/sounds/legit/left35.wav,,,,,,,,,0,6,6,21,,,,,,,,,,,,,,,left,1.02005887032,participant8,24,59.8615890287,F,trial,2017_May_26_1850,
,,0.36,"[-6.75, 0]",/sounds/legit/left100.wav,,,,,,,,,0,7,7,32,,,,,,,,,,,,,,,left,0.719316005707,participant8,24,59.8615890287,F,trial,2017_May_26_1850,
,,0.36,"[-2.25, 0]",/sounds/legit/left35.wav,,,,,,,,,0,8,8,22,,,,,,,,,,,,,,,left,1.08693885803,participant8,24,59.8615890287,F,trial,2017_May_26_1850,
,,0.23,"[-4.5, 0]",/sounds/legit/left70.wav,,,,,,,,,0,9,9,26,,,,,,,,,,,,,,,left,1.02010989189,participant8,24,59.8615890287,F,trial,2017_May_26_1850,
,,0.23,"[2.25, 0]",/sounds/legit/right35.wav,,,,,,,,,0,10,10,6,,,,,,,,,,,,,,,right,0.736342906952,participant8,24,59.8615890287,F,trial,2017_May_26_1850,
,,0.49,"[-4.5, 0]",/sounds/legit/left70.wav,,,,,,,,,0,11,11,28,,,,,,,,,,,,,,,left,0.669602870941,participant8,24,59.8615890287,F,trial,2017_May_26_1850,
,,0.23,"[-6.75, 0]",/sounds/legit/left100.wav,,,,,,,,,0,12,12,31,,,,,,,,,,,,,,,left,0.6527531147,participant8,24,59.8615890287,F,trial,2017_May_26_1850,
,,0.62,"[4.5, 0]",/sounds/legit/right70.wav,,,,,,,,,0,13,13,14,,,,,,,,,,,,,,,right,0.819518089294,participant8,24,59.8615890287,F,trial,2017_May_26_1850,
,,0.62,"[-6.75, 0]",/sounds/legit/left100.wav,,,,,,,,,0,14,14,34,,,,,,,,,,,,,,,left,0.86997795105,participant8,24,59.8615890287,F,trial,2017_May_26_1850,
,,0.49,"[-4.5, 0]",/sounds/legit/left70.wav,,,,,,,,,0,15,15,28,,,,,,,,,,,,,,,left,0.953325033188,participant8,24,59.8615890287,F,trial,2017_May_26_1850,
,,0.49,"[-6.75, 0]",/sounds/legit/left100.wav,,,,,,,,,0,16,16,33,,,,,,,,,,,,,,,left,0.619292020798,participant8,24,59.8615890287,F,trial,2017_May_26_1850,
,,0.49,"[6.75, 0]",/sounds/legit/right100.wav,,,,,,,,,0,17,17,18,,,,,,,,,,,,,,,right,0.669781923294,participant8,24,59.8615890287,F,trial,2017_May_26_1850,
,,0.1,"[4.5, 0]",/sounds/legit/right70.wav,,,,,,,,,0,18,18,10,,,,,,,,,,,,,,,right,0.635961771011,participant8,24,59.8615890287,F,trial,2017_May_26_1850,
,,0.49,"[6.75, 0]",/sounds/legit/right100.wav,,,,,,,,,0,19,19,18,,,,,,,,,,,,,,,right,0.803174972534,participant8,24,59.8615890287,F,trial,2017_May_26_1850,
,,0.62,"[2.25, 0]",/sounds/legit/right35.wav,,,,,,,,,0,20,20,9,,,,,,,,,,,,,,,right,0.853184223175,participant8,24,59.8615890287,F,trial,2017_May_26_1850,
,,0.36,"[2.25, 0]",/sounds/legit/right35.wav,,,,,,,,,0,21,21,7,,,,,,,,,,,,,,,right,1.02013397217,participant8,24,59.8615890287,F,trial,2017_May_26_1850,
,,0.23,"[-4.5, 0]",/sounds/legit/left70.wav,,,,,,,,,0,22,22,26,,,,,,,,,,,,,,,left,0.869705915451,participant8,24,59.8615890287,F,trial,2017_May_26_1850,
,,0.23,"[0, 0]",/sounds/legit/equal.wav,,,,,,,,,0,23,23,1,,,,,,,,,,,,,,,right,0.702823877335,participant8,24,59.8615890287,F,trial,2017_May_26_1850,
,,0.62,"[-4.5, 0]",/sounds/legit/left70.wav,,,,,,,,,0,24,24,29,,,,,,,,,,,,,,,left,0.80313706398,participant8,24,59.8615890287,F,trial,2017_May_26_1850,
,,0.62,"[-4.5, 0]",/sounds/legit/left70.wav,,,,,,,,,0,25,25,29,,,,,,,,,,,,,,,left,1.13713121414,participant8,24,59.8615890287,F,trial,2017_May_26_1850,
,,0.36,"[6.75, 0]",/sounds/legit/right100.wav,,,,,,,,,0,26,26,17,,,,,,,,,,,,,,,right,0.618293046951,participant8,24,59.8615890287,F,trial,2017_May_26_1850,
,,0.62,"[-6.75, 0]",/sounds/legit/left100.wav,,,,,,,,,0,27,27,34,,,,,,,,,,,,,,,left,0.837422847748,participant8,24,59.8615890287,F,trial,2017_May_26_1850,
,,0.36,"[-4.5, 0]",/sounds/legit/left70.wav,,,,,,,,,0,28,28,27,,,,,,,,,,,,,,,left,0.836267948151,participant8,24,59.8615890287,F,trial,2017_May_26_1850,
,,0.36,"[-6.75, 0]",/sounds/legit/left100.wav,,,,,,,,,0,29,29,32,,,,,,,,,,,,,,,left,0.669409036636,participant8,24,59.8615890287,F,trial,2017_May_26_1850,
,,0.49,"[4.5, 0]",/sounds/legit/right70.wav,,,,,,,,,0,30,30,13,,,,,,,,,,,,,,,right,0.752873182297,participant8,24,59.8615890287,F,trial,2017_May_26_1850,
,,0.62,"[0, 0]",/sounds/legit/equal.wav,,,,,,,,,0,31,31,4,,,,,,,,,,,,,,,right,1.17024183273,participant8,24,59.8615890287,F,trial,2017_May_26_1850,
,,0.23,"[2.25, 0]",/sounds/legit/right35.wav,,,,,,,,,0,32,32,6,,,,,,,,,,,,,,,right,1.03671002388,participant8,24,59.8615890287,F,trial,2017_May_26_1850,
,,0.23,"[-6.75, 0]",/sounds/legit/left100.wav,,,,,,,,,0,33,33,31,,,,,,,,,,,,,,,left,0.669247150421,participant8,24,59.8615890287,F,trial,2017_May_26_1850,
,,0.36,"[2.25, 0]",/sounds/legit/right35.wav,,,,,,,,,0,34,34,7,,,,,,,,,,,,,,,right,0.853204011917,participant8,24,59.8615890287,F,trial,2017_May_26_1850,
,,0.23,"[4.5, 0]",/sounds/legit/right70.wav,,,,,,,,,1,0,35,11,,,,,,,,,,,,,,,right,0.86971116066,participant8,24,59.8615890287,F,trial,2017_May_26_1850,
,,0.1,"[-4.5, 0]",/sounds/legit/left70.wav,,,,,,,,,1,1,36,25,,,,,,,,,,,,,,,left,0.686220884323,participant8,24,59.8615890287,F,trial,2017_May_26_1850,
,,0.1,"[2.25, 0]",/sounds/legit/right35.wav,,,,,,,,,1,2,37,5,,,,,,,,,,,,,,,right,0.819767951965,participant8,24,59.8615890287,F,trial,2017_May_26_1850,
,,0.1,"[4.5, 0]",/sounds/legit/right70.wav,,,,,,,,,1,3,38,10,,,,,,,,,,,,,,,right,0.868926048279,participant8,24,59.8615890287,F,trial,2017_May_26_1850,
,,0.36,"[6.75, 0]",/sounds/legit/right100.wav,,,,,,,,,1,4,39,17,,,,,,,,,,,,,,,right,0.719306945801,participant8,24,59.8615890287,F,trial,2017_May_26_1850,
,,0.36,"[-4.5, 0]",/sounds/legit/left70.wav,,,,,,,,,1,5,40,27,,,,,,,,,,,,,,,left,0.769371986389,participant8,24,59.8615890287,F,trial,2017_May_26_1850,
,,0.49,"[-2.25, 0]",/sounds/legit/left35.wav,,,,,,,,,1,6,41,23,,,,,,,,,,,,,,,left,1.1869289875,participant8,24,59.8615890287,F,trial,2017_May_26_1850,
,,0.62,"[0, 0]",/sounds/legit/equal.wav,,,,,,,,,1,7,42,4,,,,,,,,,,,,,,,right,0.86967086792,participant8,24,59.8615890287,F,trial,2017_May_26_1850,
,,0.1,"[4.5, 0]",/sounds/legit/right70.wav,,,,,,,,,1,8,43,10,,,,,,,,,,,,,,,right,0.920076131821,participant8,24,59.8615890287,F,trial,2017_May_26_1850,
,,0.1,"[2.25, 0]",/sounds/legit/right35.wav,,,,,,,,,1,9,44,5,,,,,,,,,,,,,,,right,0.935883998871,participant8,24,59.8615890287,F,trial,2017_May_26_1850,
,,0.49,"[4.5, 0]",/sounds/legit/right70.wav,,,,,,,,,1,10,45,13,,,,,,,,,,,,,,,right,0.686365842819,participant8,24,59.8615890287,F,trial,2017_May_26_1850,
,,0.49,"[-2.25, 0]",/sounds/legit/left35.wav,,,,,,,,,1,11,46,23,,,,,,,,,,,,,,,left,1.13701605797,participant8,24,59.8615890287,F,trial,2017_May_26_1850,
,,0.36,"[-2.25, 0]",/sounds/legit/left35.wav,,,,,,,,,1,12,47,22,,,,,,,,,,,,,,,left,1.17058086395,participant8,24,59.8615890287,F,trial,2017_May_26_1850,
,,0.49,"[2.25, 0]",/sounds/legit/right35.wav,,,,,,,,,1,13,48,8,,,,,,,,,,,,,,,right,1.33722305298,participant8,24,59.8615890287,F,trial,2017_May_26_1850,
,,0.49,"[-2.25, 0]",/sounds/legit/left35.wav,,,,,,,,,1,14,49,23,,,,,,,,,,,,,,,left,1.33732795715,participant8,24,59.8615890287,F,trial,2017_May_26_1850,
,,0.49,"[0, 0]",/sounds/legit/equal.wav,,,,,,,,,1,15,50,3,,,,,,,,,,,,,,,right,1.00362801552,participant8,24,59.8615890287,F,trial,2017_May_26_1850,
,,0.1,"[-6.75, 0]",/sounds/legit/left100.wav,,,,,,,,,1,16,51,30,,,,,,,,,,,,,,,left,0.619307041168,participant8,24,59.8615890287,F,trial,2017_May_26_1850,
,,0.1,"[4.5, 0]",/sounds/legit/right70.wav,,,,,,,,,1,17,52,10,,,,,,,,,,,,,,,right,0.886617898941,participant8,24,59.8615890287,F,trial,2017_May_26_1850,
,,0.1,"[2.25, 0]",/sounds/legit/right35.wav,,,,,,,,,1,18,53,5,,,,,,,,,,,,,,,right,0.736310958862,participant8,24,59.8615890287,F,trial,2017_May_26_1850,
,,0.49,"[-2.25, 0]",/sounds/legit/left35.wav,,,,,,,,,1,19,54,23,,,,,,,,,,,,,,,right,3.19175195694,participant8,24,59.8615890287,F,trial,2017_May_26_1850,
,,0.36,"[4.5, 0]",/sounds/legit/right70.wav,,,,,,,,,1,20,55,12,,,,,,,,,,,,,,,right,1.00351595879,participant8,24,59.8615890287,F,trial,2017_May_26_1850,
,,0.36,"[4.5, 0]",/sounds/legit/right70.wav,,,,,,,,,1,21,56,12,,,,,,,,,,,,,,,right,0.686456918716,participant8,24,59.8615890287,F,trial,2017_May_26_1850,
,,0.36,"[2.25, 0]",/sounds/legit/right35.wav,,,,,,,,,1,22,57,7,,,,,,,,,,,,,,,right,0.803092956543,participant8,24,59.8615890287,F,trial,2017_May_26_1850,
,,0.23,"[2.25, 0]",/sounds/legit/right35.wav,,,,,,,,,1,23,58,6,,,,,,,,,,,,,,,right,0.853487968445,participant8,24,59.8615890287,F,trial,2017_May_26_1850,
,,0.36,"[6.75, 0]",/sounds/legit/right100.wav,,,,,,,,,1,24,59,17,,,,,,,,,,,,,,,right,0.786398172379,participant8,24,59.8615890287,F,trial,2017_May_26_1850,
,,0.49,"[-2.25, 0]",/sounds/legit/left35.wav,,,,,,,,,1,25,60,23,,,,,,,,,,,,,,,left,0.819806814194,participant8,24,59.8615890287,F,trial,2017_May_26_1850,
,,0.62,"[6.75, 0]",/sounds/legit/right100.wav,,,,,,,,,1,26,61,19,,,,,,,,,,,,,,,right,0.602479934692,participant8,24,59.8615890287,F,trial,2017_May_26_1850,
,,0.36,"[-4.5, 0]",/sounds/legit/left70.wav,,,,,,,,,1,27,62,27,,,,,,,,,,,,,,,left,0.93671298027,participant8,24,59.8615890287,F,trial,2017_May_26_1850,
,,0.23,"[-6.75, 0]",/sounds/legit/left100.wav,,,,,,,,,1,28,63,31,,,,,,,,,,,,,,,left,0.786406993866,participant8,24,59.8615890287,F,trial,2017_May_26_1850,
,,0.36,"[4.5, 0]",/sounds/legit/right70.wav,,,,,,,,,1,29,64,12,,,,,,,,,,,,,,,right,0.952543020248,participant8,24,59.8615890287,F,trial,2017_May_26_1850,
,,0.62,"[-6.75, 0]",/sounds/legit/left100.wav,,,,,,,,,1,30,65,34,,,,,,,,,,,,,,,left,0.685844182968,participant8,24,59.8615890287,F,trial,2017_May_26_1850,
,,0.23,"[6.75, 0]",/sounds/legit/right100.wav,,,,,,,,,1,31,66,16,,,,,,,,,,,,,,,right,0.552752971649,participant8,24,59.8615890287,F,trial,2017_May_26_1850,
,,0.1,"[-6.75, 0]",/sounds/legit/left100.wav,,,,,,,,,1,32,67,30,,,,,,,,,,,,,,,left,0.869688987732,participant8,24,59.8615890287,F,trial,2017_May_26_1850,
,,0.23,"[-4.5, 0]",/sounds/legit/left70.wav,,,,,,,,,1,33,68,26,,,,,,,,,,,,,,,left,1.07064890862,participant8,24,59.8615890287,F,trial,2017_May_26_1850,
,,0.62,"[6.75, 0]",/sounds/legit/right100.wav,,,,,,,,,1,34,69,19,,,,,,,,,,,,,,,right,0.702833175659,participant8,24,59.8615890287,F,trial,2017_May_26_1850,
,,0.62,"[-4.5, 0]",/sounds/legit/left70.wav,,,,,,,,,2,0,70,29,,,,,,,,,,,,,,,left,1.07015109062,participant8,24,59.8615890287,F,trial,2017_May_26_1850,
,,0.1,"[2.25, 0]",/sounds/legit/right35.wav,,,,,,,,,2,1,71,5,,,,,,,,,,,,,,,right,0.753070116043,participant8,24,59.8615890287,F,trial,2017_May_26_1850,
,,0.23,"[6.75, 0]",/sounds/legit/right100.wav,,,,,,,,,2,2,72,16,,,,,,,,,,,,,,,right,0.86988401413,participant8,24,59.8615890287,F,trial,2017_May_26_1850,
,,0.62,"[-2.25, 0]",/sounds/legit/left35.wav,,,,,,,,,2,3,73,24,,,,,,,,,,,,,,,right,2.00570893288,participant8,24,59.8615890287,F,trial,2017_May_26_1850,
,,0.23,"[-2.25, 0]",/sounds/legit/left35.wav,,,,,,,,,2,4,74,21,,,,,,,,,,,,,,,left,1.00338387489,participant8,24,59.8615890287,F,trial,2017_May_26_1850,
,,0.49,"[6.75, 0]",/sounds/legit/right100.wav,,,,,,,,,2,5,75,18,,,,,,,,,,,,,,,right,0.852993011475,participant8,24,59.8615890287,F,trial,2017_May_26_1850,
,,0.62,"[6.75, 0]",/sounds/legit/right100.wav,,,,,,,,,2,6,76,19,,,,,,,,,,,,,,,right,1.40437102318,participant8,24,59.8615890287,F,trial,2017_May_26_1850,
,,0.36,"[0, 0]",/sounds/legit/equal.wav,,,,,,,,,2,7,77,2,,,,,,,,,,,,,,,right,1.02023601532,participant8,24,59.8615890287,F,trial,2017_May_26_1850,
,,0.62,"[4.5, 0]",/sounds/legit/right70.wav,,,,,,,,,2,8,78,14,,,,,,,,,,,,,,,right,1.03708410263,participant8,24,59.8615890287,F,trial,2017_May_26_1850,
,,0.62,"[4.5, 0]",/sounds/legit/right70.wav,,,,,,,,,2,9,79,14,,,,,,,,,,,,,,,right,1.16955018044,participant8,24,59.8615890287,F,trial,2017_May_26_1850,
,,0.1,"[4.5, 0]",/sounds/legit/right70.wav,,,,,,,,,2,10,80,10,,,,,,,,,,,,,,,right,0.819594144821,participant8,24,59.8615890287,F,trial,2017_May_26_1850,
,,0.23,"[-4.5, 0]",/sounds/legit/left70.wav,,,,,,,,,2,11,81,26,,,,,,,,,,,,,,,left,0.836530923843,participant8,24,59.8615890287,F,trial,2017_May_26_1850,
,,0.62,"[2.25, 0]",/sounds/legit/right35.wav,,,,,,,,,2,12,82,9,,,,,,,,,,,,,,,right,1.23634314537,participant8,24,59.8615890287,F,trial,2017_May_26_1850,
,,0.62,"[4.5, 0]",/sounds/legit/right70.wav,,,,,,,,,2,13,83,14,,,,,,,,,,,,,,,right,1.5714161396,participant8,24,59.8615890287,F,trial,2017_May_26_1850,
,,0.62,"[-2.25, 0]",/sounds/legit/left35.wav,,,,,,,,,2,14,84,24,,,,,,,,,,,,,,,left,1.1875629425,participant8,24,59.8615890287,F,trial,2017_May_26_1850,
,,0.36,"[-2.25, 0]",/sounds/legit/left35.wav,,,,,,,,,2,15,85,22,,,,,,,,,,,,,,,left,3.27478098869,participant8,24,59.8615890287,F,trial,2017_May_26_1850,
,,0.1,"[0, 0]",/sounds/legit/equal.wav,,,,,,,,,2,16,86,0,,,,,,,,,,,,,,,right,0.736770868301,participant8,24,59.8615890287,F,trial,2017_May_26_1850,
,,0.1,"[-4.5, 0]",/sounds/legit/left70.wav,,,,,,,,,2,17,87,25,,,,,,,,,,,,,,,left,0.919861078262,participant8,24,59.8615890287,F,trial,2017_May_26_1850,
,,0.49,"[-6.75, 0]",/sounds/legit/left100.wav,,,,,,,,,2,18,88,33,,,,,,,,,,,,,,,left,0.953513145447,participant8,24,59.8615890287,F,trial,2017_May_26_1850,
,,0.62,"[-2.25, 0]",/sounds/legit/left35.wav,,,,,,,,,2,19,89,24,,,,,,,,,,,,,,,left,1.1871380806,participant8,24,59.8615890287,F,trial,2017_May_26_1850,
,,0.1,"[0, 0]",/sounds/legit/equal.wav,,,,,,,,,2,20,90,0,,,,,,,,,,,,,,,right,1.05351281166,participant8,24,59.8615890287,F,trial,2017_May_26_1850,
,,0.62,"[2.25, 0]",/sounds/legit/right35.wav,,,,,,,,,2,21,91,9,,,,,,,,,,,,,,,right,0.969828128815,participant8,24,59.8615890287,F,trial,2017_May_26_1850,
,,0.62,"[-6.75, 0]",/sounds/legit/left100.wav,,,,,,,,,2,22,92,34,,,,,,,,,,,,,,,left,1.82193803787,participant8,24,59.8615890287,F,trial,2017_May_26_1850,
,,0.49,"[-2.25, 0]",/sounds/legit/left35.wav,,,,,,,,,2,23,93,23,,,,,,,,,,,,,,,left,1.18737506866,participant8,24,59.8615890287,F,trial,2017_May_26_1850,
,,0.23,"[4.5, 0]",/sounds/legit/right70.wav,,,,,,,,,2,24,94,11,,,,,,,,,,,,,,,right,0.836458921432,participant8,24,59.8615890287,F,trial,2017_May_26_1850,
,,0.23,"[-2.25, 0]",/sounds/legit/left35.wav,,,,,,,,,2,25,95,21,,,,,,,,,,,,,,,left,1.52105712891,participant8,24,59.8615890287,F,trial,2017_May_26_1850,
,,0.23,"[-6.75, 0]",/sounds/legit/left100.wav,,,,,,,,,2,26,96,31,,,,,,,,,,,,,,,left,0.953195810318,participant8,24,59.8615890287,F,trial,2017_May_26_1850,
,,0.62,"[-4.5, 0]",/sounds/legit/left70.wav,,,,,,,,,2,27,97,29,,,,,,,,,,,,,,,left,1.02008700371,participant8,24,59.8615890287,F,trial,2017_May_26_1850,
,,0.23,"[-4.5, 0]",/sounds/legit/left70.wav,,,,,,,,,2,28,98,26,,,,,,,,,,,,,,,left,0.836810827255,participant8,24,59.8615890287,F,trial,2017_May_26_1850,
,,0.49,"[-4.5, 0]",/sounds/legit/left70.wav,,,,,,,,,2,29,99,28,,,,,,,,,,,,,,,left,0.903216123581,participant8,24,59.8615890287,F,trial,2017_May_26_1850,
,,0.23,"[0, 0]",/sounds/legit/equal.wav,,,,,,,,,2,30,100,1,,,,,,,,,,,,,,,right,0.569388151169,participant8,24,59.8615890287,F,trial,2017_May_26_1850,
,,0.36,"[4.5, 0]",/sounds/legit/right70.wav,,,,,,,,,2,31,101,12,,,,,,,,,,,,,,,right,0.652584791183,participant8,24,59.8615890287,F,trial,2017_May_26_1850,
,,0.62,"[0, 0]",/sounds/legit/equal.wav,,,,,,,,,2,32,102,4,,,,,,,,,,,,,,,right,0.886683940887,participant8,24,59.8615890287,F,trial,2017_May_26_1850,
,,0.1,"[0, 0]",/sounds/legit/equal.wav,,,,,,,,,2,33,103,0,,,,,,,,,,,,,,,right,0.736137866974,participant8,24,59.8615890287,F,trial,2017_May_26_1850,
,,0.36,"[-4.5, 0]",/sounds/legit/left70.wav,,,,,,,,,2,34,104,27,,,,,,,,,,,,,,,left,0.853190898895,participant8,24,59.8615890287,F,trial,2017_May_26_1850,
,,0.62,"[4.5, 0]",/sounds/legit/right70.wav,,,,,,,,,3,0,105,14,,,,,,,,,,,,,,,right,0.970090866089,participant8,24,59.8615890287,F,trial,2017_May_26_1850,
,,0.62,"[6.75, 0]",/sounds/legit/right100.wav,,,,,,,,,3,1,106,19,,,,,,,,,,,,,,,right,0.602669000626,participant8,24,59.8615890287,F,trial,2017_May_26_1850,
,,0.62,"[-6.75, 0]",/sounds/legit/left100.wav,,,,,,,,,3,2,107,34,,,,,,,,,,,,,,,left,0.786294937134,participant8,24,59.8615890287,F,trial,2017_May_26_1850,
,,0.36,"[-6.75, 0]",/sounds/legit/left100.wav,,,,,,,,,3,3,108,32,,,,,,,,,,,,,,,left,0.769510984421,participant8,24,59.8615890287,F,trial,2017_May_26_1850,
,,0.1,"[-4.5, 0]",/sounds/legit/left70.wav,,,,,,,,,3,4,109,25,,,,,,,,,,,,,,,left,0.970152854919,participant8,24,59.8615890287,F,trial,2017_May_26_1850,
,,0.36,"[0, 0]",/sounds/legit/equal.wav,,,,,,,,,3,5,110,2,,,,,,,,,,,,,,,right,1.23733615875,participant8,24,59.8615890287,F,trial,2017_May_26_1850,
,,0.49,"[2.25, 0]",/sounds/legit/right35.wav,,,,,,,,,3,6,111,8,,,,,,,,,,,,,,,right,1.05371713638,participant8,24,59.8615890287,F,trial,2017_May_26_1850,
,,0.49,"[-4.5, 0]",/sounds/legit/left70.wav,,,,,,,,,3,7,112,28,,,,,,,,,,,,,,,left,0.836209058762,participant8,24,59.8615890287,F,trial,2017_May_26_1850,
,,0.49,"[-6.75, 0]",/sounds/legit/left100.wav,,,,,,,,,3,8,113,33,,,,,,,,,,,,,,,left,0.986939907074,participant8,24,59.8615890287,F,trial,2017_May_26_1850,
,,0.62,"[-2.25, 0]",/sounds/legit/left35.wav,,,,,,,,,3,9,114,24,,,,,,,,,,,,,,,left,1.07022690773,participant8,24,59.8615890287,F,trial,2017_May_26_1850,
,,0.62,"[0, 0]",/sounds/legit/equal.wav,,,,,,,,,3,10,115,4,,,,,,,,,,,,,,,right,1.83829593658,participant8,24,59.8615890287,F,trial,2017_May_26_1850,
,,0.1,"[-2.25, 0]",/sounds/legit/left35.wav,,,,,,,,,3,11,116,20,,,,,,,,,,,,,,,left,1.77201795578,participant8,24,59.8615890287,F,trial,2017_May_26_1850,
,,0.49,"[-4.5, 0]",/sounds/legit/left70.wav,,,,,,,,,3,12,117,28,,,,,,,,,,,,,,,left,1.12027406693,participant8,24,59.8615890287,F,trial,2017_May_26_1850,
,,0.1,"[-4.5, 0]",/sounds/legit/left70.wav,,,,,,,,,3,13,118,25,,,,,,,,,,,,,,,left,0.987248897552,participant8,24,59.8615890287,F,trial,2017_May_26_1850,
,,0.49,"[6.75, 0]",/sounds/legit/right100.wav,,,,,,,,,3,14,119,18,,,,,,,,,,,,,,,right,0.619447946548,participant8,24,59.8615890287,F,trial,2017_May_26_1850,
,,0.36,"[2.25, 0]",/sounds/legit/right35.wav,,,,,,,,,3,15,120,7,,,,,,,,,,,,,,,right,0.93673491478,participant8,24,59.8615890287,F,trial,2017_May_26_1850,
,,0.23,"[4.5, 0]",/sounds/legit/right70.wav,,,,,,,,,3,16,121,11,,,,,,,,,,,,,,,right,0.786345005035,participant8,24,59.8615890287,F,trial,2017_May_26_1850,
,,0.23,"[-4.5, 0]",/sounds/legit/left70.wav,,,,,,,,,3,17,122,26,,,,,,,,,,,,,,,left,0.636434078217,participant8,24,59.8615890287,F,trial,2017_May_26_1850,
,,0.36,"[-2.25, 0]",/sounds/legit/left35.wav,,,,,,,,,3,18,123,22,,,,,,,,,,,,,,,left,0.786226987839,participant8,24,59.8615890287,F,trial,2017_May_26_1850,
,,0.49,"[-4.5, 0]",/sounds/legit/left70.wav,,,,,,,,,3,19,124,28,,,,,,,,,,,,,,,left,0.870105028152,participant8,24,59.8615890287,F,trial,2017_May_26_1850,
,,0.49,"[0, 0]",/sounds/legit/equal.wav,,,,,,,,,3,20,125,3,,,,,,,,,,,,,,,right,1.28749489784,participant8,24,59.8615890287,F,trial,2017_May_26_1850,
,,0.1,"[6.75, 0]",/sounds/legit/right100.wav,,,,,,,,,3,21,126,15,,,,,,,,,,,,,,,right,0.936770915985,participant8,24,59.8615890287,F,trial,2017_May_26_1850,
,,0.23,"[0, 0]",/sounds/legit/equal.wav,,,,,,,,,3,22,127,1,,,,,,,,,,,,,,,right,2.2561609745,participant8,24,59.8615890287,F,trial,2017_May_26_1850,
,,0.36,"[-6.75, 0]",/sounds/legit/left100.wav,,,,,,,,,3,23,128,32,,,,,,,,,,,,,,,left,0.987010955811,participant8,24,59.8615890287,F,trial,2017_May_26_1850,
,,0.23,"[2.25, 0]",/sounds/legit/right35.wav,,,,,,,,,3,24,129,6,,,,,,,,,,,,,,,right,1.03690886497,participant8,24,59.8615890287,F,trial,2017_May_26_1850,
,,0.23,"[6.75, 0]",/sounds/legit/right100.wav,,,,,,,,,3,25,130,16,,,,,,,,,,,,,,,right,1.08767795563,participant8,24,59.8615890287,F,trial,2017_May_26_1850,
,,0.62,"[-4.5, 0]",/sounds/legit/left70.wav,,,,,,,,,3,26,131,29,,,,,,,,,,,,,,,left,0.769968032837,participant8,24,59.8615890287,F,trial,2017_May_26_1850,
,,0.1,"[0, 0]",/sounds/legit/equal.wav,,,,,,,,,3,27,132,0,,,,,,,,,,,,,,,right,1.22058987617,participant8,24,59.8615890287,F,trial,2017_May_26_1850,
,,0.36,"[0, 0]",/sounds/legit/equal.wav,,,,,,,,,3,28,133,2,,,,,,,,,,,,,,,left,0.953547000885,participant8,24,59.8615890287,F,trial,2017_May_26_1850,
,,0.23,"[0, 0]",/sounds/legit/equal.wav,,,,,,,,,3,29,134,1,,,,,,,,,,,,,,,right,0.953255176544,participant8,24,59.8615890287,F,trial,2017_May_26_1850,
,,0.36,"[6.75, 0]",/sounds/legit/right100.wav,,,,,,,,,3,30,135,17,,,,,,,,,,,,,,,right,1.13661694527,participant8,24,59.8615890287,F,trial,2017_May_26_1850,
,,0.62,"[2.25, 0]",/sounds/legit/right35.wav,,,,,,,,,3,31,136,9,,,,,,,,,,,,,,,right,0.836607933044,participant8,24,59.8615890287,F,trial,2017_May_26_1850,
,,0.23,"[-2.25, 0]",/sounds/legit/left35.wav,,,,,,,,,3,32,137,21,,,,,,,,,,,,,,,left,1.03685307503,participant8,24,59.8615890287,F,trial,2017_May_26_1850,
,,0.23,"[-2.25, 0]",/sounds/legit/left35.wav,,,,,,,,,3,33,138,21,,,,,,,,,,,,,,,left,1.37106800079,participant8,24,59.8615890287,F,trial,2017_May_26_1850,
,,0.36,"[-6.75, 0]",/sounds/legit/left100.wav,,,,,,,,,3,34,139,32,,,,,,,,,,,,,,,left,0.83651804924,participant8,24,59.8615890287,F,trial,2017_May_26_1850,
,,0.49,"[-6.75, 0]",/sounds/legit/left100.wav,,,,,,,,,4,0,140,33,,,,,,,,,,,,,,,left,0.836416006088,participant8,24,59.8615890287,F,trial,2017_May_26_1850,
,,0.36,"[6.75, 0]",/sounds/legit/right100.wav,,,,,,,,,4,1,141,17,,,,,,,,,,,,,,,right,0.686233997345,participant8,24,59.8615890287,F,trial,2017_May_26_1850,
,,0.1,"[2.25, 0]",/sounds/legit/right35.wav,,,,,,,,,4,2,142,5,,,,,,,,,,,,,,,right,1.00349020958,participant8,24,59.8615890287,F,trial,2017_May_26_1850,
,,0.1,"[-2.25, 0]",/sounds/legit/left35.wav,,,,,,,,,4,3,143,20,,,,,,,,,,,,,,,left,0.9702501297,participant8,24,59.8615890287,F,trial,2017_May_26_1850,
,,0.62,"[-6.75, 0]",/sounds/legit/left100.wav,,,,,,,,,4,4,144,34,,,,,,,,,,,,,,,left,0.786206960678,participant8,24,59.8615890287,F,trial,2017_May_26_1850,
,,0.1,"[6.75, 0]",/sounds/legit/right100.wav,,,,,,,,,4,5,145,15,,,,,,,,,,,,,,,right,0.853362083435,participant8,24,59.8615890287,F,trial,2017_May_26_1850,
,,0.1,"[-4.5, 0]",/sounds/legit/left70.wav,,,,,,,,,4,6,146,25,,,,,,,,,,,,,,,left,0.869980096817,participant8,24,59.8615890287,F,trial,2017_May_26_1850,
,,0.23,"[2.25, 0]",/sounds/legit/right35.wav,,,,,,,,,4,7,147,6,,,,,,,,,,,,,,,right,0.936517000198,participant8,24,59.8615890287,F,trial,2017_May_26_1850,
,,0.49,"[6.75, 0]",/sounds/legit/right100.wav,,,,,,,,,4,8,148,18,,,,,,,,,,,,,,,right,0.952440977097,participant8,24,59.8615890287,F,trial,2017_May_26_1850,
,,0.62,"[0, 0]",/sounds/legit/equal.wav,,,,,,,,,4,9,149,4,,,,,,,,,,,,,,,left,1.65535998344,participant8,24,59.8615890287,F,trial,2017_May_26_1850,
,,0.49,"[6.75, 0]",/sounds/legit/right100.wav,,,,,,,,,4,10,150,18,,,,,,,,,,,,,,,right,1.43866300583,participant8,24,59.8615890287,F,trial,2017_May_26_1850,
,,0.62,"[-4.5, 0]",/sounds/legit/left70.wav,,,,,,,,,4,11,151,29,,,,,,,,,,,,,,,left,1.10362696648,participant8,24,59.8615890287,F,trial,2017_May_26_1850,
,,0.49,"[2.25, 0]",/sounds/legit/right35.wav,,,,,,,,,4,12,152,8,,,,,,,,,,,,,,,right,0.819636821747,participant8,24,59.8615890287,F,trial,2017_May_26_1850,
,,0.36,"[-6.75, 0]",/sounds/legit/left100.wav,,,,,,,,,4,13,153,32,,,,,,,,,,,,,,,left,0.920216083527,participant8,24,59.8615890287,F,trial,2017_May_26_1850,
,,0.23,"[4.5, 0]",/sounds/legit/right70.wav,,,,,,,,,4,14,154,11,,,,,,,,,,,,,,,right,0.919937133789,participant8,24,59.8615890287,F,trial,2017_May_26_1850,
,,0.49,"[2.25, 0]",/sounds/legit/right35.wav,,,,,,,,,4,15,155,8,,,,,,,,,,,,,,,right,1.38767290115,participant8,24,59.8615890287,F,trial,2017_May_26_1850,
,,0.62,"[2.25, 0]",/sounds/legit/right35.wav,,,,,,,,,4,16,156,9,,,,,,,,,,,,,,,right,1.47114086151,participant8,24,59.8615890287,F,trial,2017_May_26_1850,
,,0.36,"[0, 0]",/sounds/legit/equal.wav,,,,,,,,,4,17,157,2,,,,,,,,,,,,,,,right,1.12077307701,participant8,24,59.8615890287,F,trial,2017_May_26_1850,
,,0.1,"[-2.25, 0]",/sounds/legit/left35.wav,,,,,,,,,4,18,158,20,,,,,,,,,,,,,,,left,1.13721394539,participant8,24,59.8615890287,F,trial,2017_May_26_1850,
,,0.49,"[2.25, 0]",/sounds/legit/right35.wav,,,,,,,,,4,19,159,8,,,,,,,,,,,,,,,right,0.920163154602,participant8,24,59.8615890287,F,trial,2017_May_26_1850,
,,0.36,"[2.25, 0]",/sounds/legit/right35.wav,,,,,,,,,4,20,160,7,,,,,,,,,,,,,,,right,0.920058012009,participant8,24,59.8615890287,F,trial,2017_May_26_1850,
,,0.1,"[6.75, 0]",/sounds/legit/right100.wav,,,,,,,,,4,21,161,15,,,,,,,,,,,,,,,right,0.953485965729,participant8,24,59.8615890287,F,trial,2017_May_26_1850,
,,0.62,"[-4.5, 0]",/sounds/legit/left70.wav,,,,,,,,,4,22,162,29,,,,,,,,,,,,,,,left,1.27132201195,participant8,24,59.8615890287,F,trial,2017_May_26_1850,
,,0.62,"[2.25, 0]",/sounds/legit/right35.wav,,,,,,,,,4,23,163,9,,,,,,,,,,,,,,,right,1.10372805595,participant8,24,59.8615890287,F,trial,2017_May_26_1850,
,,0.62,"[-6.75, 0]",/sounds/legit/left100.wav,,,,,,,,,4,24,164,34,,,,,,,,,,,,,,,left,0.919849872589,participant8,24,59.8615890287,F,trial,2017_May_26_1850,
,,0.49,"[0, 0]",/sounds/legit/equal.wav,,,,,,,,,4,25,165,3,,,,,,,,,,,,,,,right,1.20401501656,participant8,24,59.8615890287,F,trial,2017_May_26_1850,
,,0.36,"[-2.25, 0]",/sounds/legit/left35.wav,,,,,,,,,4,26,166,22,,,,,,,,,,,,,,,left,1.37084293365,participant8,24,59.8615890287,F,trial,2017_May_26_1850,
,,0.1,"[6.75, 0]",/sounds/legit/right100.wav,,,,,,,,,4,27,167,15,,,,,,,,,,,,,,,right,1.0542140007,participant8,24,59.8615890287,F,trial,2017_May_26_1850,
,,0.23,"[-2.25, 0]",/sounds/legit/left35.wav,,,,,,,,,4,28,168,21,,,,,,,,,,,,,,,left,1.3035671711,participant8,24,59.8615890287,F,trial,2017_May_26_1850,
,,0.1,"[-2.25, 0]",/sounds/legit/left35.wav,,,,,,,,,4,29,169,20,,,,,,,,,,,,,,,left,1.38755106926,participant8,24,59.8615890287,F,trial,2017_May_26_1850,
,,0.36,"[0, 0]",/sounds/legit/equal.wav,,,,,,,,,4,30,170,2,,,,,,,,,,,,,,,right,1.48758006096,participant8,24,59.8615890287,F,trial,2017_May_26_1850,
,,0.49,"[6.75, 0]",/sounds/legit/right100.wav,,,,,,,,,4,31,171,18,,,,,,,,,,,,,,,right,1.15383195877,participant8,24,59.8615890287,F,trial,2017_May_26_1850,
,,0.23,"[0, 0]",/sounds/legit/equal.wav,,,,,,,,,4,32,172,1,,,,,,,,,,,,,,,right,1.25425100327,participant8,24,59.8615890287,F,trial,2017_May_26_1850,
,,0.23,"[4.5, 0]",/sounds/legit/right70.wav,,,,,,,,,4,33,173,11,,,,,,,,,,,,,,,right,1.08704900742,participant8,24,59.8615890287,F,trial,2017_May_26_1850,
,,0.49,"[4.5, 0]",/sounds/legit/right70.wav,,,,,,,,,4,34,174,13,,,,,,,,,,,,,,,right,0.952440977097,participant8,24,59.8615890287,F,trial,2017_May_26_1850,
,,0.49,"[-4.5, 0]",/sounds/legit/left70.wav,,,,,,,,,5,0,175,28,,,,,,,,,,,,,,,left,0.71950507164,participant8,24,59.8615890287,F,trial,2017_May_26_1850,
,,0.36,"[0, 0]",/sounds/legit/equal.wav,,,,,,,,,5,1,176,2,,,,,,,,,,,,,,,right,1.27058601379,participant8,24,59.8615890287,F,trial,2017_May_26_1850,
,,0.23,"[-2.25, 0]",/sounds/legit/left35.wav,,,,,,,,,5,2,177,21,,,,,,,,,,,,,,,left,1.20417308807,participant8,24,59.8615890287,F,trial,2017_May_26_1850,
,,0.36,"[4.5, 0]",/sounds/legit/right70.wav,,,,,,,,,5,3,178,12,,,,,,,,,,,,,,,right,1.30435395241,participant8,24,59.8615890287,F,trial,2017_May_26_1850,
,,0.49,"[4.5, 0]",/sounds/legit/right70.wav,,,,,,,,,5,4,179,13,,,,,,,,,,,,,,,right,1.05360007286,participant8,24,59.8615890287,F,trial,2017_May_26_1850,
,,0.1,"[-4.5, 0]",/sounds/legit/left70.wav,,,,,,,,,5,5,180,25,,,,,,,,,,,,,,,left,0.903115034103,participant8,24,59.8615890287,F,trial,2017_May_26_1850,
,,0.49,"[-6.75, 0]",/sounds/legit/left100.wav,,,,,,,,,5,6,181,33,,,,,,,,,,,,,,,left,1.00374698639,participant8,24,59.8615890287,F,trial,2017_May_26_1850,
,,0.62,"[-2.25, 0]",/sounds/legit/left35.wav,,,,,,,,,5,7,182,24,,,,,,,,,,,,,,,left,1.5044939518,participant8,24,59.8615890287,F,trial,2017_May_26_1850,
,,0.23,"[6.75, 0]",/sounds/legit/right100.wav,,,,,,,,,5,8,183,16,,,,,,,,,,,,,,,right,0.869807958603,participant8,24,59.8615890287,F,trial,2017_May_26_1850,
,,0.1,"[-6.75, 0]",/sounds/legit/left100.wav,,,,,,,,,5,9,184,30,,,,,,,,,,,,,,,left,0.91984796524,participant8,24,59.8615890287,F,trial,2017_May_26_1850,
,,0.1,"[-2.25, 0]",/sounds/legit/left35.wav,,,,,,,,,5,10,185,20,,,,,,,,,,,,,,,left,1.43748378754,participant8,24,59.8615890287,F,trial,2017_May_26_1850,
,,0.62,"[-4.5, 0]",/sounds/legit/left70.wav,,,,,,,,,5,11,186,29,,,,,,,,,,,,,,,left,0.986593961716,participant8,24,59.8615890287,F,trial,2017_May_26_1850,
,,0.23,"[0, 0]",/sounds/legit/equal.wav,,,,,,,,,5,12,187,1,,,,,,,,,,,,,,,right,0.92013502121,participant8,24,59.8615890287,F,trial,2017_May_26_1850,
,,0.62,"[4.5, 0]",/sounds/legit/right70.wav,,,,,,,,,5,13,188,14,,,,,,,,,,,,,,,right,0.953444004059,participant8,24,59.8615890287,F,trial,2017_May_26_1850,
,,0.23,"[-4.5, 0]",/sounds/legit/left70.wav,,,,,,,,,5,14,189,26,,,,,,,,,,,,,,,left,0.952457904816,participant8,24,59.8615890287,F,trial,2017_May_26_1850,
,,0.49,"[-6.75, 0]",/sounds/legit/left100.wav,,,,,,,,,5,15,190,33,,,,,,,,,,,,,,,left,1.00341010094,participant8,24,59.8615890287,F,trial,2017_May_26_1850,
,,0.23,"[2.25, 0]",/sounds/legit/right35.wav,,,,,,,,,5,16,191,6,,,,,,,,,,,,,,,right,1.05341911316,participant8,24,59.8615890287,F,trial,2017_May_26_1850,
,,0.1,"[4.5, 0]",/sounds/legit/right70.wav,,,,,,,,,5,17,192,10,,,,,,,,,,,,,,,right,0.83654999733,participant8,24,59.8615890287,F,trial,2017_May_26_1850,
,,0.49,"[4.5, 0]",/sounds/legit/right70.wav,,,,,,,,,5,18,193,13,,,,,,,,,,,,,,,right,1.00326895714,participant8,24,59.8615890287,F,trial,2017_May_26_1850,
,,0.49,"[0, 0]",/sounds/legit/equal.wav,,,,,,,,,5,19,194,3,,,,,,,,,,,,,,,right,1.10357284546,participant8,24,59.8615890287,F,trial,2017_May_26_1850,
,,0.23,"[-6.75, 0]",/sounds/legit/left100.wav,,,,,,,,,5,20,195,31,,,,,,,,,,,,,,,left,0.819479942322,participant8,24,59.8615890287,F,trial,2017_May_26_1850,
,,0.1,"[-2.25, 0]",/sounds/legit/left35.wav,,,,,,,,,5,21,196,20,,,,,,,,,,,,,,,left,0.903084993362,participant8,24,59.8615890287,F,trial,2017_May_26_1850,
,,0.23,"[-6.75, 0]",/sounds/legit/left100.wav,,,,,,,,,5,22,197,31,,,,,,,,,,,,,,,left,0.803004026413,participant8,24,59.8615890287,F,trial,2017_May_26_1850,
,,0.62,"[-4.5, 0]",/sounds/legit/left70.wav,,,,,,,,,5,23,198,29,,,,,,,,,,,,,,,left,1.35404396057,participant8,24,59.8615890287,F,trial,2017_May_26_1850,
,,0.23,"[-4.5, 0]",/sounds/legit/left70.wav,,,,,,,,,5,24,199,26,,,,,,,,,,,,,,,left,0.819800138474,participant8,24,59.8615890287,F,trial,2017_May_26_1850,
,,0.62,"[2.25, 0]",/sounds/legit/right35.wav,,,,,,,,,5,25,200,9,,,,,,,,,,,,,,,right,0.802858114243,participant8,24,59.8615890287,F,trial,2017_May_26_1850,
,,0.49,"[-2.25, 0]",/sounds/legit/left35.wav,,,,,,,,,5,26,201,23,,,,,,,,,,,,,,,left,0.986726045609,participant8,24,59.8615890287,F,trial,2017_May_26_1850,
,,0.23,"[6.75, 0]",/sounds/legit/right100.wav,,,,,,,,,5,27,202,16,,,,,,,,,,,,,,,right,0.719702005386,participant8,24,59.8615890287,F,trial,2017_May_26_1850,
,,0.49,"[0, 0]",/sounds/legit/equal.wav,,,,,,,,,5,28,203,3,,,,,,,,,,,,,,,right,1.22061300278,participant8,24,59.8615890287,F,trial,2017_May_26_1850,
,,0.23,"[-6.75, 0]",/sounds/legit/left100.wav,,,,,,,,,5,29,204,31,,,,,,,,,,,,,,,left,0.653723955154,participant8,24,59.8615890287,F,trial,2017_May_26_1850,
,,0.36,"[-2.25, 0]",/sounds/legit/left35.wav,,,,,,,,,5,30,205,22,,,,,,,,,,,,,,,left,1.07028198242,participant8,24,59.8615890287,F,trial,2017_May_26_1850,
,,0.36,"[-4.5, 0]",/sounds/legit/left70.wav,,,,,,,,,5,31,206,27,,,,,,,,,,,,,,,left,0.903438091278,participant8,24,59.8615890287,F,trial,2017_May_26_1850,
,,0.36,"[-6.75, 0]",/sounds/legit/left100.wav,,,,,,,,,5,32,207,32,,,,,,,,,,,,,,,left,0.920253038406,participant8,24,59.8615890287,F,trial,2017_May_26_1850,
,,0.49,"[-4.5, 0]",/sounds/legit/left70.wav,,,,,,,,,5,33,208,28,,,,,,,,,,,,,,,left,0.786159992218,participant8,24,59.8615890287,F,trial,2017_May_26_1850,
,,0.49,"[0, 0]",/sounds/legit/equal.wav,,,,,,,,,5,34,209,3,,,,,,,,,,,,,,,right,1.20396304131,participant8,24,59.8615890287,F,trial,2017_May_26_1850,
,,0.23,"[6.75, 0]",/sounds/legit/right100.wav,,,,,,,,,6,0,210,16,,,,,,,,,,,,,,,right,0.669406890869,participant8,24,59.8615890287,F,trial,2017_May_26_1850,
,,0.1,"[4.5, 0]",/sounds/legit/right70.wav,,,,,,,,,6,1,211,10,,,,,,,,,,,,,,,right,0.903144836426,participant8,24,59.8615890287,F,trial,2017_May_26_1850,
,,0.49,"[2.25, 0]",/sounds/legit/right35.wav,,,,,,,,,6,2,212,8,,,,,,,,,,,,,,,right,1.23739695549,participant8,24,59.8615890287,F,trial,2017_May_26_1850,
,,0.1,"[6.75, 0]",/sounds/legit/right100.wav,,,,,,,,,6,3,213,15,,,,,,,,,,,,,,,right,0.786144018173,participant8,24,59.8615890287,F,trial,2017_May_26_1850,
,,0.49,"[0, 0]",/sounds/legit/equal.wav,,,,,,,,,6,4,214,3,,,,,,,,,,,,,,,left,1.33768081665,participant8,24,59.8615890287,F,trial,2017_May_26_1850,
,,0.1,"[2.25, 0]",/sounds/legit/right35.wav,,,,,,,,,6,5,215,5,,,,,,,,,,,,,,,right,1.37087798119,participant8,24,59.8615890287,F,trial,2017_May_26_1850,
,,0.23,"[4.5, 0]",/sounds/legit/right70.wav,,,,,,,,,6,6,216,11,,,,,,,,,,,,,,,right,0.736341953278,participant8,24,59.8615890287,F,trial,2017_May_26_1850,
,,0.23,"[4.5, 0]",/sounds/legit/right70.wav,,,,,,,,,6,7,217,11,,,,,,,,,,,,,,,right,0.803194999695,participant8,24,59.8615890287,F,trial,2017_May_26_1850,
,,0.49,"[-2.25, 0]",/sounds/legit/left35.wav,,,,,,,,,6,8,218,23,,,,,,,,,,,,,,,left,1.22063612938,participant8,24,59.8615890287,F,trial,2017_May_26_1850,
,,0.62,"[2.25, 0]",/sounds/legit/right35.wav,,,,,,,,,6,9,219,9,,,,,,,,,,,,,,,right,0.953605175018,participant8,24,59.8615890287,F,trial,2017_May_26_1850,
,,0.62,"[-4.5, 0]",/sounds/legit/left70.wav,,,,,,,,,6,10,220,29,,,,,,,,,,,,,,,left,0.803077936172,participant8,24,59.8615890287,F,trial,2017_May_26_1850,
,,0.23,"[6.75, 0]",/sounds/legit/right100.wav,,,,,,,,,6,11,221,16,,,,,,,,,,,,,,,right,0.836623907089,participant8,24,59.8615890287,F,trial,2017_May_26_1850,
,,0.1,"[-4.5, 0]",/sounds/legit/left70.wav,,,,,,,,,6,12,222,25,,,,,,,,,,,,,,,left,0.853082895279,participant8,24,59.8615890287,F,trial,2017_May_26_1850,
,,0.49,"[6.75, 0]",/sounds/legit/right100.wav,,,,,,,,,6,13,223,18,,,,,,,,,,,,,,,right,0.703369140625,participant8,24,59.8615890287,F,trial,2017_May_26_1850,
,,0.23,"[6.75, 0]",/sounds/legit/right100.wav,,,,,,,,,6,14,224,16,,,,,,,,,,,,,,,right,0.786389827728,participant8,24,59.8615890287,F,trial,2017_May_26_1850,
,,0.1,"[-2.25, 0]",/sounds/legit/left35.wav,,,,,,,,,6,15,225,20,,,,,,,,,,,,,,,left,0.802898168564,participant8,24,59.8615890287,F,trial,2017_May_26_1850,
,,0.62,"[6.75, 0]",/sounds/legit/right100.wav,,,,,,,,,6,16,226,19,,,,,,,,,,,,,,,right,0.903382778168,participant8,24,59.8615890287,F,trial,2017_May_26_1850,
,,0.23,"[-2.25, 0]",/sounds/legit/left35.wav,,,,,,,,,6,17,227,21,,,,,,,,,,,,,,,left,0.936690807343,participant8,24,59.8615890287,F,trial,2017_May_26_1850,
,,0.1,"[6.75, 0]",/sounds/legit/right100.wav,,,,,,,,,6,18,228,15,,,,,,,,,,,,,,,right,0.71984910965,participant8,24,59.8615890287,F,trial,2017_May_26_1850,
