path,name,noise,location,correspondingAudio,audiotrials.thisRepN,audiotrials.thisTrialN,audiotrials.thisN,audiotrials.thisIndex,visualTrials.thisRepN,visualTrials.thisTrialN,visualTrials.thisN,visualTrials.thisIndex,combinedTrials.thisRepN,combinedTrials.thisTrialN,combinedTrials.thisN,combinedTrials.thisIndex,WelcomeKey.keys,WelcomeKey.rt,key_resp_2.keys,key_resp_2.rt,AudioInstrAccept.keys,AudioInstrAccept.rt,LeftorRight.keys,LeftorRight.rt,VisualBlock.keys,VisualBlock.rt,VisualDecision.keys,VisualDecision.rt,CombinedAccept.keys,CombinedAccept.rt,CombComparisonResponse.keys,CombComparisonResponse.rt,participant,age,frameRate,sex,expName,date,
,,,,,,,,,,,,,,,,,space,9.20359802246,,,,,,,,,,,,,,,participant5,23,59.8726976591,F,trial,2017_May_26_1321,
,,,,,,,,,,,,,,,,,,,space,7.61840820312,,,,,,,,,,,,,participant5,23,59.8726976591,F,trial,2017_May_26_1321,
,,,,,,,,,,,,,,,,,,,,,space,5.83096194267,,,,,,,,,,,participant5,23,59.8726976591,F,trial,2017_May_26_1321,
/sounds/legit/left100.wav,left100,,,,0,0,0,0,,,,,,,,,,,,,,,left,2.40662097931,,,,,,,,,participant5,23,59.8726976591,F,trial,2017_May_26_1321,
/sounds/legit/right100.wav,right100,,,,0,1,1,5,,,,,,,,,,,,,,,right,0.252144098282,,,,,,,,,participant5,23,59.8726976591,F,trial,2017_May_26_1321,
/sounds/legit/left35.wav,left30,,,,0,2,2,2,,,,,,,,,,,,,,,left,0.318633079529,,,,,,,,,participant5,23,59.8726976591,F,trial,2017_May_26_1321,
/sounds/legit/right70.wav,right60,,,,0,3,3,4,,,,,,,,,,,,,,,right,0.251749038696,,,,,,,,,participant5,23,59.8726976591,F,trial,2017_May_26_1321,
/sounds/legit/left70.wav,left60,,,,0,4,4,1,,,,,,,,,,,,,,,left,0.268600940704,,,,,,,,,participant5,23,59.8726976591,F,trial,2017_May_26_1321,
/sounds/legit/equal.wav,equal,,,,0,5,5,6,,,,,,,,,,,,,,,right,1.08697891235,,,,,,,,,participant5,23,59.8726976591,F,trial,2017_May_26_1321,
/sounds/legit/right35.wav,right30,,,,0,6,6,3,,,,,,,,,,,,,,,right,0.452147006989,,,,,,,,,participant5,23,59.8726976591,F,trial,2017_May_26_1321,
/sounds/legit/left35.wav,left30,,,,1,0,7,2,,,,,,,,,,,,,,,left,0.536021947861,,,,,,,,,participant5,23,59.8726976591,F,trial,2017_May_26_1321,
/sounds/legit/right70.wav,right60,,,,1,1,8,4,,,,,,,,,,,,,,,right,0.368801116943,,,,,,,,,participant5,23,59.8726976591,F,trial,2017_May_26_1321,
/sounds/legit/left100.wav,left100,,,,1,2,9,0,,,,,,,,,,,,,,,left,1.02016091347,,,,,,,,,participant5,23,59.8726976591,F,trial,2017_May_26_1321,
/sounds/legit/right100.wav,right100,,,,1,3,10,5,,,,,,,,,,,,,,,right,0.652922153473,,,,,,,,,participant5,23,59.8726976591,F,trial,2017_May_26_1321,
/sounds/legit/equal.wav,equal,,,,1,4,11,6,,,,,,,,,,,,,,,left,1.52124118805,,,,,,,,,participant5,23,59.8726976591,F,trial,2017_May_26_1321,
/sounds/legit/left70.wav,left60,,,,1,5,12,1,,,,,,,,,,,,,,,left,0.719854831696,,,,,,,,,participant5,23,59.8726976591,F,trial,2017_May_26_1321,
/sounds/legit/right35.wav,right30,,,,1,6,13,3,,,,,,,,,,,,,,,right,0.250987052917,,,,,,,,,participant5,23,59.8726976591,F,trial,2017_May_26_1321,
/sounds/legit/right35.wav,right30,,,,2,0,14,3,,,,,,,,,,,,,,,right,0.368469953537,,,,,,,,,participant5,23,59.8726976591,F,trial,2017_May_26_1321,
/sounds/legit/left35.wav,left30,,,,2,1,15,2,,,,,,,,,,,,,,,left,0.352085113525,,,,,,,,,participant5,23,59.8726976591,F,trial,2017_May_26_1321,
/sounds/legit/right100.wav,right100,,,,2,2,16,5,,,,,,,,,,,,,,,right,0.252032995224,,,,,,,,,participant5,23,59.8726976591,F,trial,2017_May_26_1321,
/sounds/legit/left100.wav,left100,,,,2,3,17,0,,,,,,,,,,,,,,,left,0.167546033859,,,,,,,,,participant5,23,59.8726976591,F,trial,2017_May_26_1321,
/sounds/legit/right70.wav,right60,,,,2,4,18,4,,,,,,,,,,,,,,,right,0.718465089798,,,,,,,,,participant5,23,59.8726976591,F,trial,2017_May_26_1321,
/sounds/legit/left70.wav,left60,,,,2,5,19,1,,,,,,,,,,,,,,,left,0.920233011246,,,,,,,,,participant5,23,59.8726976591,F,trial,2017_May_26_1321,
/sounds/legit/equal.wav,equal,,,,2,6,20,6,,,,,,,,,,,,,,,left,1.28734302521,,,,,,,,,participant5,23,59.8726976591,F,trial,2017_May_26_1321,
/sounds/legit/left100.wav,left100,,,,3,0,21,0,,,,,,,,,,,,,,,left,0.385447978973,,,,,,,,,participant5,23,59.8726976591,F,trial,2017_May_26_1321,
/sounds/legit/equal.wav,equal,,,,3,1,22,6,,,,,,,,,,,,,,,right,1.27095198631,,,,,,,,,participant5,23,59.8726976591,F,trial,2017_May_26_1321,
/sounds/legit/right35.wav,right30,,,,3,2,23,3,,,,,,,,,,,,,,,right,0.552481889725,,,,,,,,,participant5,23,59.8726976591,F,trial,2017_May_26_1321,
/sounds/legit/right70.wav,right60,,,,3,3,24,4,,,,,,,,,,,,,,,right,0.502601146698,,,,,,,,,participant5,23,59.8726976591,F,trial,2017_May_26_1321,
/sounds/legit/right100.wav,right100,,,,3,4,25,5,,,,,,,,,,,,,,,right,0.285384178162,,,,,,,,,participant5,23,59.8726976591,F,trial,2017_May_26_1321,
/sounds/legit/left35.wav,left30,,,,3,5,26,2,,,,,,,,,,,,,,,left,0.418928146362,,,,,,,,,participant5,23,59.8726976591,F,trial,2017_May_26_1321,
/sounds/legit/left70.wav,left60,,,,3,6,27,1,,,,,,,,,,,,,,,left,0.75293302536,,,,,,,,,participant5,23,59.8726976591,F,trial,2017_May_26_1321,
/sounds/legit/right35.wav,right30,,,,4,0,28,3,,,,,,,,,,,,,,,right,0.335435152054,,,,,,,,,participant5,23,59.8726976591,F,trial,2017_May_26_1321,
/sounds/legit/equal.wav,equal,,,,4,1,29,6,,,,,,,,,,,,,,,left,13.0294191837,,,,,,,,,participant5,23,59.8726976591,F,trial,2017_May_26_1321,
/sounds/legit/left35.wav,left30,,,,4,2,30,2,,,,,,,,,,,,,,,left,0.485896110535,,,,,,,,,participant5,23,59.8726976591,F,trial,2017_May_26_1321,
/sounds/legit/right100.wav,right100,,,,4,3,31,5,,,,,,,,,,,,,,,right,0.250905990601,,,,,,,,,participant5,23,59.8726976591,F,trial,2017_May_26_1321,
/sounds/legit/right70.wav,right60,,,,4,4,32,4,,,,,,,,,,,,,,,right,0.318955898285,,,,,,,,,participant5,23,59.8726976591,F,trial,2017_May_26_1321,
/sounds/legit/left100.wav,left100,,,,4,5,33,0,,,,,,,,,,,,,,,left,0.084804058075,,,,,,,,,participant5,23,59.8726976591,F,trial,2017_May_26_1321,
/sounds/legit/left70.wav,left60,,,,4,6,34,1,,,,,,,,,,,,,,,left,0.585896015167,,,,,,,,,participant5,23,59.8726976591,F,trial,2017_May_26_1321,
/sounds/legit/left35.wav,left30,,,,5,0,35,2,,,,,,,,,,,,,,,left,0.435880899429,,,,,,,,,participant5,23,59.8726976591,F,trial,2017_May_26_1321,
/sounds/legit/right100.wav,right100,,,,5,1,36,5,,,,,,,,,,,,,,,right,0.0513830184937,,,,,,,,,participant5,23,59.8726976591,F,trial,2017_May_26_1321,
/sounds/legit/right35.wav,right30,,,,5,2,37,3,,,,,,,,,,,,,,,left,0.701952934265,,,,,,,,,participant5,23,59.8726976591,F,trial,2017_May_26_1321,
/sounds/legit/equal.wav,equal,,,,5,3,38,6,,,,,,,,,,,,,,,left,0.502283096313,,,,,,,,,participant5,23,59.8726976591,F,trial,2017_May_26_1321,
/sounds/legit/right70.wav,right60,,,,5,4,39,4,,,,,,,,,,,,,,,right,0.268748044968,,,,,,,,,participant5,23,59.8726976591,F,trial,2017_May_26_1321,
/sounds/legit/left70.wav,left60,,,,5,5,40,1,,,,,,,,,,,,,,,left,0.23509311676,,,,,,,,,participant5,23,59.8726976591,F,trial,2017_May_26_1321,
/sounds/legit/left100.wav,left100,,,,5,6,41,0,,,,,,,,,,,,,,,left,0.201805830002,,,,,,,,,participant5,23,59.8726976591,F,trial,2017_May_26_1321,
/sounds/legit/left70.wav,left60,,,,6,0,42,1,,,,,,,,,,,,,,,left,0.886784076691,,,,,,,,,participant5,23,59.8726976591,F,trial,2017_May_26_1321,
/sounds/legit/equal.wav,equal,,,,6,1,43,6,,,,,,,,,,,,,,,left,0.368624925613,,,,,,,,,participant5,23,59.8726976591,F,trial,2017_May_26_1321,
/sounds/legit/right35.wav,right30,,,,6,2,44,3,,,,,,,,,,,,,,,right,0.318871974945,,,,,,,,,participant5,23,59.8726976591,F,trial,2017_May_26_1321,
/sounds/legit/left35.wav,left30,,,,6,3,45,2,,,,,,,,,,,,,,,left,0.302056074142,,,,,,,,,participant5,23,59.8726976591,F,trial,2017_May_26_1321,
/sounds/legit/left100.wav,left100,,,,6,4,46,0,,,,,,,,,,,,,,,left,0.118123054504,,,,,,,,,participant5,23,59.8726976591,F,trial,2017_May_26_1321,
/sounds/legit/right70.wav,right60,,,,6,5,47,4,,,,,,,,,,,,,,,right,0.151871919632,,,,,,,,,participant5,23,59.8726976591,F,trial,2017_May_26_1321,
/sounds/legit/right100.wav,right100,,,,6,6,48,5,,,,,,,,,,,,,,,right,0.3019490242,,,,,,,,,participant5,23,59.8726976591,F,trial,2017_May_26_1321,
/sounds/legit/left35.wav,left30,,,,7,0,49,2,,,,,,,,,,,,,,,left,0.552448987961,,,,,,,,,participant5,23,59.8726976591,F,trial,2017_May_26_1321,
/sounds/legit/left70.wav,left60,,,,7,1,50,1,,,,,,,,,,,,,,,left,0.101654052734,,,,,,,,,participant5,23,59.8726976591,F,trial,2017_May_26_1321,
/sounds/legit/right100.wav,right100,,,,7,2,51,5,,,,,,,,,,,,,,,right,0.234999895096,,,,,,,,,participant5,23,59.8726976591,F,trial,2017_May_26_1321,
/sounds/legit/right70.wav,right60,,,,7,3,52,4,,,,,,,,,,,,,,,right,0.201718091965,,,,,,,,,participant5,23,59.8726976591,F,trial,2017_May_26_1321,
/sounds/legit/equal.wav,equal,,,,7,4,53,6,,,,,,,,,,,,,,,left,0.435653209686,,,,,,,,,participant5,23,59.8726976591,F,trial,2017_May_26_1321,
/sounds/legit/right35.wav,right30,,,,7,5,54,3,,,,,,,,,,,,,,,right,0.168314933777,,,,,,,,,participant5,23,59.8726976591,F,trial,2017_May_26_1321,
/sounds/legit/left100.wav,left100,,,,7,6,55,0,,,,,,,,,,,,,,,left,0.0848858356476,,,,,,,,,participant5,23,59.8726976591,F,trial,2017_May_26_1321,
/sounds/legit/right100.wav,right100,,,,8,0,56,5,,,,,,,,,,,,,,,right,0.235184907913,,,,,,,,,participant5,23,59.8726976591,F,trial,2017_May_26_1321,
/sounds/legit/right70.wav,right60,,,,8,1,57,4,,,,,,,,,,,,,,,right,1.15385103226,,,,,,,,,participant5,23,59.8726976591,F,trial,2017_May_26_1321,
/sounds/legit/left100.wav,left100,,,,8,2,58,0,,,,,,,,,,,,,,,left,0.268609046936,,,,,,,,,participant5,23,59.8726976591,F,trial,2017_May_26_1321,
/sounds/legit/right35.wav,right30,,,,8,3,59,3,,,,,,,,,,,,,,,right,0.335647106171,,,,,,,,,participant5,23,59.8726976591,F,trial,2017_May_26_1321,
/sounds/legit/left70.wav,left60,,,,8,4,60,1,,,,,,,,,,,,,,,right,0.368830919266,,,,,,,,,participant5,23,59.8726976591,F,trial,2017_May_26_1321,
/sounds/legit/equal.wav,equal,,,,8,5,61,6,,,,,,,,,,,,,,,left,0.903366088867,,,,,,,,,participant5,23,59.8726976591,F,trial,2017_May_26_1321,
/sounds/legit/left35.wav,left30,,,,8,6,62,2,,,,,,,,,,,,,,,left,0.469055175781,,,,,,,,,participant5,23,59.8726976591,F,trial,2017_May_26_1321,
/sounds/legit/left100.wav,left100,,,,9,0,63,0,,,,,,,,,,,,,,,left,0.318647146225,,,,,,,,,participant5,23,59.8726976591,F,trial,2017_May_26_1321,
/sounds/legit/equal.wav,equal,,,,9,1,64,6,,,,,,,,,,,,,,,left,0.986929893494,,,,,,,,,participant5,23,59.8726976591,F,trial,2017_May_26_1321,
/sounds/legit/right70.wav,right60,,,,9,2,65,4,,,,,,,,,,,,,,,right,0.334455966949,,,,,,,,,participant5,23,59.8726976591,F,trial,2017_May_26_1321,
/sounds/legit/right35.wav,right30,,,,9,3,66,3,,,,,,,,,,,,,,,left,0.803229093552,,,,,,,,,participant5,23,59.8726976591,F,trial,2017_May_26_1321,
/sounds/legit/left35.wav,left30,,,,9,4,67,2,,,,,,,,,,,,,,,left,0.302132129669,,,,,,,,,participant5,23,59.8726976591,F,trial,2017_May_26_1321,
/sounds/legit/right100.wav,right100,,,,9,5,68,5,,,,,,,,,,,,,,,right,0.235357999802,,,,,,,,,participant5,23,59.8726976591,F,trial,2017_May_26_1321,
/sounds/legit/left70.wav,left60,,,,9,6,69,1,,,,,,,,,,,,,,,left,0.418989896774,,,,,,,,,participant5,23,59.8726976591,F,trial,2017_May_26_1321,
,,,,,,,,,,,,,,,,,,,,,,,,,space,17.6398589611,,,,,,,participant5,23,59.8726976591,F,trial,2017_May_26_1321,
,,0.23,"[-4.5, 0]",/sounds/legit/left70.wav,,,,,0,0,0,26,,,,,,,,,,,,,,,left,0.535928010941,,,,,participant5,23,59.8726976591,F,trial,2017_May_26_1321,
,,0.36,"[-6.75, 0]",/sounds/legit/left100.wav,,,,,0,1,1,32,,,,,,,,,,,,,,,left,0.385396957397,,,,,participant5,23,59.8726976591,F,trial,2017_May_26_1321,
,,0.49,"[4.5, 0]",/sounds/legit/right70.wav,,,,,0,2,2,13,,,,,,,,,,,,,,,right,0.268477916718,,,,,participant5,23,59.8726976591,F,trial,2017_May_26_1321,
,,0.23,"[-2.25, 0]",/sounds/legit/left35.wav,,,,,0,3,3,21,,,,,,,,,,,,,,,left,0.185122013092,,,,,participant5,23,59.8726976591,F,trial,2017_May_26_1321,
,,0.1,"[2.25, 0]",/sounds/legit/right35.wav,,,,,0,4,4,5,,,,,,,,,,,,,,,right,0.13499212265,,,,,participant5,23,59.8726976591,F,trial,2017_May_26_1321,
,,0.62,"[2.25, 0]",/sounds/legit/right35.wav,,,,,0,5,5,9,,,,,,,,,,,,,,,left,1.28753900528,,,,,participant5,23,59.8726976591,F,trial,2017_May_26_1321,
,,0.49,"[-4.5, 0]",/sounds/legit/left70.wav,,,,,0,6,6,28,,,,,,,,,,,,,,,left,0.385651111603,,,,,participant5,23,59.8726976591,F,trial,2017_May_26_1321,
,,0.62,"[0, 0]",/sounds/legit/equal.wav,,,,,0,7,7,4,,,,,,,,,,,,,,,left,0.719499111176,,,,,participant5,23,59.8726976591,F,trial,2017_May_26_1321,
,,0.36,"[6.75, 0]",/sounds/legit/right100.wav,,,,,0,8,8,17,,,,,,,,,,,,,,,right,0.117974996567,,,,,participant5,23,59.8726976591,F,trial,2017_May_26_1321,
,,0.36,"[-2.25, 0]",/sounds/legit/left35.wav,,,,,0,9,9,22,,,,,,,,,,,,,,,left,0.335185050964,,,,,participant5,23,59.8726976591,F,trial,2017_May_26_1321,
,,0.62,"[-2.25, 0]",/sounds/legit/left35.wav,,,,,0,10,10,24,,,,,,,,,,,,,,,left,0.184843063354,,,,,participant5,23,59.8726976591,F,trial,2017_May_26_1321,
,,0.49,"[2.25, 0]",/sounds/legit/right35.wav,,,,,0,11,11,8,,,,,,,,,,,,,,,right,3.32535791397,,,,,participant5,23,59.8726976591,F,trial,2017_May_26_1321,
,,0.36,"[4.5, 0]",/sounds/legit/right70.wav,,,,,0,12,12,12,,,,,,,,,,,,,,,right,0.402346134186,,,,,participant5,23,59.8726976591,F,trial,2017_May_26_1321,
,,0.62,"[4.5, 0]",/sounds/legit/right70.wav,,,,,0,13,13,14,,,,,,,,,,,,,,,right,0.21847987175,,,,,participant5,23,59.8726976591,F,trial,2017_May_26_1321,
,,0.23,"[0, 0]",/sounds/legit/equal.wav,,,,,0,14,14,1,,,,,,,,,,,,,,,left,0.151814937592,,,,,participant5,23,59.8726976591,F,trial,2017_May_26_1321,
,,0.49,"[6.75, 0]",/sounds/legit/right100.wav,,,,,0,15,15,18,,,,,,,,,,,,,,,right,0.101431131363,,,,,participant5,23,59.8726976591,F,trial,2017_May_26_1321,
,,0.23,"[6.75, 0]",/sounds/legit/right100.wav,,,,,0,16,16,16,,,,,,,,,,,,,,,right,0.185070037842,,,,,participant5,23,59.8726976591,F,trial,2017_May_26_1321,
,,0.36,"[2.25, 0]",/sounds/legit/right35.wav,,,,,0,17,17,7,,,,,,,,,,,,,,,right,0.185101985931,,,,,participant5,23,59.8726976591,F,trial,2017_May_26_1321,
,,0.49,"[-2.25, 0]",/sounds/legit/left35.wav,,,,,0,18,18,23,,,,,,,,,,,,,,,left,0.118365049362,,,,,participant5,23,59.8726976591,F,trial,2017_May_26_1321,
,,0.23,"[2.25, 0]",/sounds/legit/right35.wav,,,,,0,19,19,6,,,,,,,,,,,,,,,right,2.17272281647,,,,,participant5,23,59.8726976591,F,trial,2017_May_26_1321,
,,0.1,"[-4.5, 0]",/sounds/legit/left70.wav,,,,,0,20,20,25,,,,,,,,,,,,,,,left,0.0515851974487,,,,,participant5,23,59.8726976591,F,trial,2017_May_26_1321,
,,0.1,"[4.5, 0]",/sounds/legit/right70.wav,,,,,0,21,21,10,,,,,,,,,,,,,,,right,0.368785858154,,,,,participant5,23,59.8726976591,F,trial,2017_May_26_1321,
,,0.1,"[6.75, 0]",/sounds/legit/right100.wav,,,,,0,22,22,15,,,,,,,,,,,,,,,right,0.302264928818,,,,,participant5,23,59.8726976591,F,trial,2017_May_26_1321,
,,0.49,"[0, 0]",/sounds/legit/equal.wav,,,,,0,23,23,3,,,,,,,,,,,,,,,left,0.46911907196,,,,,participant5,23,59.8726976591,F,trial,2017_May_26_1321,
,,0.62,"[-4.5, 0]",/sounds/legit/left70.wav,,,,,0,24,24,29,,,,,,,,,,,,,,,left,0.335514068604,,,,,participant5,23,59.8726976591,F,trial,2017_May_26_1321,
,,0.23,"[-6.75, 0]",/sounds/legit/left100.wav,,,,,0,25,25,31,,,,,,,,,,,,,,,left,0.135051965714,,,,,participant5,23,59.8726976591,F,trial,2017_May_26_1321,
,,0.23,"[4.5, 0]",/sounds/legit/right70.wav,,,,,0,26,26,11,,,,,,,,,,,,,,,right,0.151835918427,,,,,participant5,23,59.8726976591,F,trial,2017_May_26_1321,
,,0.62,"[-6.75, 0]",/sounds/legit/left100.wav,,,,,0,27,27,34,,,,,,,,,,,,,,,right,0.485590934753,,,,,participant5,23,59.8726976591,F,trial,2017_May_26_1321,
,,0.1,"[0, 0]",/sounds/legit/equal.wav,,,,,0,28,28,0,,,,,,,,,,,,,,,right,0.435675144196,,,,,participant5,23,59.8726976591,F,trial,2017_May_26_1321,
,,0.1,"[-6.75, 0]",/sounds/legit/left100.wav,,,,,0,29,29,30,,,,,,,,,,,,,,,left,0.335293054581,,,,,participant5,23,59.8726976591,F,trial,2017_May_26_1321,
,,0.49,"[-6.75, 0]",/sounds/legit/left100.wav,,,,,0,30,30,33,,,,,,,,,,,,,,,left,0.418960094452,,,,,participant5,23,59.8726976591,F,trial,2017_May_26_1321,
,,0.36,"[0, 0]",/sounds/legit/equal.wav,,,,,0,31,31,2,,,,,,,,,,,,,,,left,0.719305038452,,,,,participant5,23,59.8726976591,F,trial,2017_May_26_1321,
,,0.1,"[-2.25, 0]",/sounds/legit/left35.wav,,,,,0,32,32,20,,,,,,,,,,,,,,,left,0.335386037827,,,,,participant5,23,59.8726976591,F,trial,2017_May_26_1321,
,,0.62,"[6.75, 0]",/sounds/legit/right100.wav,,,,,0,33,33,19,,,,,,,,,,,,,,,right,0.0512490272522,,,,,participant5,23,59.8726976591,F,trial,2017_May_26_1321,
,,0.36,"[-4.5, 0]",/sounds/legit/left70.wav,,,,,0,34,34,27,,,,,,,,,,,,,,,left,0.484908103943,,,,,participant5,23,59.8726976591,F,trial,2017_May_26_1321,
,,0.36,"[-6.75, 0]",/sounds/legit/left100.wav,,,,,1,0,35,32,,,,,,,,,,,,,,,left,0.452363014221,,,,,participant5,23,59.8726976591,F,trial,2017_May_26_1321,
,,0.49,"[0, 0]",/sounds/legit/equal.wav,,,,,1,1,36,3,,,,,,,,,,,,,,,right,0.134890079498,,,,,participant5,23,59.8726976591,F,trial,2017_May_26_1321,
,,0.23,"[4.5, 0]",/sounds/legit/right70.wav,,,,,1,2,37,11,,,,,,,,,,,,,,,right,0.552501916885,,,,,participant5,23,59.8726976591,F,trial,2017_May_26_1321,
,,0.1,"[-4.5, 0]",/sounds/legit/left70.wav,,,,,1,3,38,25,,,,,,,,,,,,,,,left,0.535665988922,,,,,participant5,23,59.8726976591,F,trial,2017_May_26_1321,
,,0.62,"[-4.5, 0]",/sounds/legit/left70.wav,,,,,1,4,39,29,,,,,,,,,,,,,,,left,0.335448980331,,,,,participant5,23,59.8726976591,F,trial,2017_May_26_1321,
,,0.23,"[-6.75, 0]",/sounds/legit/left100.wav,,,,,1,5,40,31,,,,,,,,,,,,,,,left,0.168653011322,,,,,participant5,23,59.8726976591,F,trial,2017_May_26_1321,
,,0.36,"[4.5, 0]",/sounds/legit/right70.wav,,,,,1,6,41,12,,,,,,,,,,,,,,,right,0.285200834274,,,,,participant5,23,59.8726976591,F,trial,2017_May_26_1321,
,,0.1,"[-6.75, 0]",/sounds/legit/left100.wav,,,,,1,7,42,30,,,,,,,,,,,,,,,left,0.803144931793,,,,,participant5,23,59.8726976591,F,trial,2017_May_26_1321,
,,0.62,"[4.5, 0]",/sounds/legit/right70.wav,,,,,1,8,43,14,,,,,,,,,,,,,,,right,0.302031040192,,,,,participant5,23,59.8726976591,F,trial,2017_May_26_1321,
,,0.1,"[-2.25, 0]",/sounds/legit/left35.wav,,,,,1,9,44,20,,,,,,,,,,,,,,,left,0.502529859543,,,,,participant5,23,59.8726976591,F,trial,2017_May_26_1321,
,,0.49,"[-6.75, 0]",/sounds/legit/left100.wav,,,,,1,10,45,33,,,,,,,,,,,,,,,left,0.418761968613,,,,,participant5,23,59.8726976591,F,trial,2017_May_26_1321,
,,0.23,"[-2.25, 0]",/sounds/legit/left35.wav,,,,,1,11,46,21,,,,,,,,,,,,,,,left,0.385563135147,,,,,participant5,23,59.8726976591,F,trial,2017_May_26_1321,
,,0.49,"[2.25, 0]",/sounds/legit/right35.wav,,,,,1,12,47,8,,,,,,,,,,,,,,,right,0.168260097504,,,,,participant5,23,59.8726976591,F,trial,2017_May_26_1321,
,,0.36,"[-2.25, 0]",/sounds/legit/left35.wav,,,,,1,13,48,22,,,,,,,,,,,,,,,left,0.402053833008,,,,,participant5,23,59.8726976591,F,trial,2017_May_26_1321,
,,0.36,"[0, 0]",/sounds/legit/equal.wav,,,,,1,14,49,2,,,,,,,,,,,,,,,left,0.98682808876,,,,,participant5,23,59.8726976591,F,trial,2017_May_26_1321,
,,0.62,"[-6.75, 0]",/sounds/legit/left100.wav,,,,,1,15,50,34,,,,,,,,,,,,,,,left,0.585648059845,,,,,participant5,23,59.8726976591,F,trial,2017_May_26_1321,
,,0.49,"[4.5, 0]",/sounds/legit/right70.wav,,,,,1,16,51,13,,,,,,,,,,,,,,,right,0.101748943329,,,,,participant5,23,59.8726976591,F,trial,2017_May_26_1321,
,,0.62,"[-2.25, 0]",/sounds/legit/left35.wav,,,,,1,17,52,24,,,,,,,,,,,,,,,left,0.402339935303,,,,,participant5,23,59.8726976591,F,trial,2017_May_26_1321,
,,0.1,"[2.25, 0]",/sounds/legit/right35.wav,,,,,1,18,53,5,,,,,,,,,,,,,,,right,0.3353099823,,,,,participant5,23,59.8726976591,F,trial,2017_May_26_1321,
,,0.62,"[2.25, 0]",/sounds/legit/right35.wav,,,,,1,19,54,9,,,,,,,,,,,,,,,right,0.402371883392,,,,,participant5,23,59.8726976591,F,trial,2017_May_26_1321,
,,0.62,"[0, 0]",/sounds/legit/equal.wav,,,,,1,20,55,4,,,,,,,,,,,,,,,left,0.786417007446,,,,,participant5,23,59.8726976591,F,trial,2017_May_26_1321,
,,0.36,"[6.75, 0]",/sounds/legit/right100.wav,,,,,1,21,56,17,,,,,,,,,,,,,,,right,0.368632078171,,,,,participant5,23,59.8726976591,F,trial,2017_May_26_1321,
,,0.36,"[-4.5, 0]",/sounds/legit/left70.wav,,,,,1,22,57,27,,,,,,,,,,,,,,,left,0.435518980026,,,,,participant5,23,59.8726976591,F,trial,2017_May_26_1321,
,,0.36,"[2.25, 0]",/sounds/legit/right35.wav,,,,,1,23,58,7,,,,,,,,,,,,,,,right,0.719732999802,,,,,participant5,23,59.8726976591,F,trial,2017_May_26_1321,
,,0.49,"[-4.5, 0]",/sounds/legit/left70.wav,,,,,1,24,59,28,,,,,,,,,,,,,,,left,0.852981090546,,,,,participant5,23,59.8726976591,F,trial,2017_May_26_1321,
,,0.1,"[4.5, 0]",/sounds/legit/right70.wav,,,,,1,25,60,10,,,,,,,,,,,,,,,right,0.335286855698,,,,,participant5,23,59.8726976591,F,trial,2017_May_26_1321,
,,0.1,"[6.75, 0]",/sounds/legit/right100.wav,,,,,1,26,61,15,,,,,,,,,,,,,,,right,0.435849905014,,,,,participant5,23,59.8726976591,F,trial,2017_May_26_1321,
,,0.49,"[6.75, 0]",/sounds/legit/right100.wav,,,,,1,27,62,18,,,,,,,,,,,,,,,right,0.318701982498,,,,,participant5,23,59.8726976591,F,trial,2017_May_26_1321,
,,0.23,"[6.75, 0]",/sounds/legit/right100.wav,,,,,1,28,63,16,,,,,,,,,,,,,,,right,0.101521015167,,,,,participant5,23,59.8726976591,F,trial,2017_May_26_1321,
,,0.23,"[0, 0]",/sounds/legit/equal.wav,,,,,1,29,64,1,,,,,,,,,,,,,,,left,0.318958997726,,,,,participant5,23,59.8726976591,F,trial,2017_May_26_1321,
,,0.49,"[-2.25, 0]",/sounds/legit/left35.wav,,,,,1,30,65,23,,,,,,,,,,,,,,,left,0.402178049088,,,,,participant5,23,59.8726976591,F,trial,2017_May_26_1321,
,,0.1,"[0, 0]",/sounds/legit/equal.wav,,,,,1,31,66,0,,,,,,,,,,,,,,,left,0.970186948776,,,,,participant5,23,59.8726976591,F,trial,2017_May_26_1321,
,,0.62,"[6.75, 0]",/sounds/legit/right100.wav,,,,,1,32,67,19,,,,,,,,,,,,,,,right,0.452449083328,,,,,participant5,23,59.8726976591,F,trial,2017_May_26_1321,
,,0.23,"[-4.5, 0]",/sounds/legit/left70.wav,,,,,1,33,68,26,,,,,,,,,,,,,,,left,0.335315942764,,,,,participant5,23,59.8726976591,F,trial,2017_May_26_1321,
,,0.23,"[2.25, 0]",/sounds/legit/right35.wav,,,,,1,34,69,6,,,,,,,,,,,,,,,right,1.28757405281,,,,,participant5,23,59.8726976591,F,trial,2017_May_26_1321,
,,0.1,"[-6.75, 0]",/sounds/legit/left100.wav,,,,,2,0,70,30,,,,,,,,,,,,,,,left,0.235131025314,,,,,participant5,23,59.8726976591,F,trial,2017_May_26_1321,
,,0.23,"[-6.75, 0]",/sounds/legit/left100.wav,,,,,2,1,71,31,,,,,,,,,,,,,,,left,0.268446922302,,,,,participant5,23,59.8726976591,F,trial,2017_May_26_1321,
,,0.23,"[6.75, 0]",/sounds/legit/right100.wav,,,,,2,2,72,16,,,,,,,,,,,,,,,right,0.452397823334,,,,,participant5,23,59.8726976591,F,trial,2017_May_26_1321,
,,0.62,"[-4.5, 0]",/sounds/legit/left70.wav,,,,,2,3,73,29,,,,,,,,,,,,,,,left,0.385624885559,,,,,participant5,23,59.8726976591,F,trial,2017_May_26_1321,
,,0.1,"[-2.25, 0]",/sounds/legit/left35.wav,,,,,2,4,74,20,,,,,,,,,,,,,,,left,0.686367034912,,,,,participant5,23,59.8726976591,F,trial,2017_May_26_1321,
,,0.36,"[2.25, 0]",/sounds/legit/right35.wav,,,,,2,5,75,7,,,,,,,,,,,,,,,left,1.90546894073,,,,,participant5,23,59.8726976591,F,trial,2017_May_26_1321,
,,0.62,"[4.5, 0]",/sounds/legit/right70.wav,,,,,2,6,76,14,,,,,,,,,,,,,,,right,0.602471113205,,,,,participant5,23,59.8726976591,F,trial,2017_May_26_1321,
,,0.36,"[-2.25, 0]",/sounds/legit/left35.wav,,,,,2,7,77,22,,,,,,,,,,,,,,,left,0.401975870132,,,,,participant5,23,59.8726976591,F,trial,2017_May_26_1321,
,,0.36,"[6.75, 0]",/sounds/legit/right100.wav,,,,,2,8,78,17,,,,,,,,,,,,,,,right,0.318748950958,,,,,participant5,23,59.8726976591,F,trial,2017_May_26_1321,
,,0.23,"[2.25, 0]",/sounds/legit/right35.wav,,,,,2,9,79,6,,,,,,,,,,,,,,,right,0.819889068604,,,,,participant5,23,59.8726976591,F,trial,2017_May_26_1321,
,,0.1,"[-4.5, 0]",/sounds/legit/left70.wav,,,,,2,10,80,25,,,,,,,,,,,,,,,left,0.352001905441,,,,,participant5,23,59.8726976591,F,trial,2017_May_26_1321,
,,0.62,"[0, 0]",/sounds/legit/equal.wav,,,,,2,11,81,4,,,,,,,,,,,,,,,right,0.352097988129,,,,,participant5,23,59.8726976591,F,trial,2017_May_26_1321,
,,0.49,"[-6.75, 0]",/sounds/legit/left100.wav,,,,,2,12,82,33,,,,,,,,,,,,,,,left,0.70293712616,,,,,participant5,23,59.8726976591,F,trial,2017_May_26_1321,
,,0.49,"[0, 0]",/sounds/legit/equal.wav,,,,,2,13,83,3,,,,,,,,,,,,,,,right,0.886745929718,,,,,participant5,23,59.8726976591,F,trial,2017_May_26_1321,
,,0.1,"[6.75, 0]",/sounds/legit/right100.wav,,,,,2,14,84,15,,,,,,,,,,,,,,,right,0.769883155823,,,,,participant5,23,59.8726976591,F,trial,2017_May_26_1321,
,,0.36,"[-4.5, 0]",/sounds/legit/left70.wav,,,,,2,15,85,27,,,,,,,,,,,,,,,left,0.117908000946,,,,,participant5,23,59.8726976591,F,trial,2017_May_26_1321,
,,0.62,"[-2.25, 0]",/sounds/legit/left35.wav,,,,,2,16,86,24,,,,,,,,,,,,,,,left,1.73854494095,,,,,participant5,23,59.8726976591,F,trial,2017_May_26_1321,
,,0.1,"[2.25, 0]",/sounds/legit/right35.wav,,,,,2,17,87,5,,,,,,,,,,,,,,,right,0.185003042221,,,,,participant5,23,59.8726976591,F,trial,2017_May_26_1321,
,,0.62,"[6.75, 0]",/sounds/legit/right100.wav,,,,,2,18,88,19,,,,,,,,,,,,,,,left,1.58795309067,,,,,participant5,23,59.8726976591,F,trial,2017_May_26_1321,
,,0.1,"[4.5, 0]",/sounds/legit/right70.wav,,,,,2,19,89,10,,,,,,,,,,,,,,,right,0.35190320015,,,,,participant5,23,59.8726976591,F,trial,2017_May_26_1321,
,,0.62,"[2.25, 0]",/sounds/legit/right35.wav,,,,,2,20,90,9,,,,,,,,,,,,,,,right,0.435658931732,,,,,participant5,23,59.8726976591,F,trial,2017_May_26_1321,
,,0.23,"[0, 0]",/sounds/legit/equal.wav,,,,,2,21,91,1,,,,,,,,,,,,,,,left,0.585664987564,,,,,participant5,23,59.8726976591,F,trial,2017_May_26_1321,
,,0.23,"[-4.5, 0]",/sounds/legit/left70.wav,,,,,2,22,92,26,,,,,,,,,,,,,,,left,0.83654999733,,,,,participant5,23,59.8726976591,F,trial,2017_May_26_1321,
,,0.23,"[-2.25, 0]",/sounds/legit/left35.wav,,,,,2,23,93,21,,,,,,,,,,,,,,,left,0.752908945084,,,,,participant5,23,59.8726976591,F,trial,2017_May_26_1321,
,,0.36,"[0, 0]",/sounds/legit/equal.wav,,,,,2,24,94,2,,,,,,,,,,,,,,,left,0.502426147461,,,,,participant5,23,59.8726976591,F,trial,2017_May_26_1321,
,,0.49,"[6.75, 0]",/sounds/legit/right100.wav,,,,,2,25,95,18,,,,,,,,,,,,,,,right,0.36904001236,,,,,participant5,23,59.8726976591,F,trial,2017_May_26_1321,
,,0.1,"[0, 0]",/sounds/legit/equal.wav,,,,,2,26,96,0,,,,,,,,,,,,,,,left,0.752819061279,,,,,participant5,23,59.8726976591,F,trial,2017_May_26_1321,
,,0.49,"[-2.25, 0]",/sounds/legit/left35.wav,,,,,2,27,97,23,,,,,,,,,,,,,,,left,0.352154970169,,,,,participant5,23,59.8726976591,F,trial,2017_May_26_1321,
,,0.36,"[-6.75, 0]",/sounds/legit/left100.wav,,,,,2,28,98,32,,,,,,,,,,,,,,,left,0.452220916748,,,,,participant5,23,59.8726976591,F,trial,2017_May_26_1321,
,,0.36,"[4.5, 0]",/sounds/legit/right70.wav,,,,,2,29,99,12,,,,,,,,,,,,,,,right,0.352177858353,,,,,participant5,23,59.8726976591,F,trial,2017_May_26_1321,
,,0.49,"[2.25, 0]",/sounds/legit/right35.wav,,,,,2,30,100,8,,,,,,,,,,,,,,,right,0.469199895859,,,,,participant5,23,59.8726976591,F,trial,2017_May_26_1321,
,,0.49,"[4.5, 0]",/sounds/legit/right70.wav,,,,,2,31,101,13,,,,,,,,,,,,,,,right,0.11822104454,,,,,participant5,23,59.8726976591,F,trial,2017_May_26_1321,
,,0.23,"[4.5, 0]",/sounds/legit/right70.wav,,,,,2,32,102,11,,,,,,,,,,,,,,,right,0.335199832916,,,,,participant5,23,59.8726976591,F,trial,2017_May_26_1321,
,,0.49,"[-4.5, 0]",/sounds/legit/left70.wav,,,,,2,33,103,28,,,,,,,,,,,,,,,left,0.452147960663,,,,,participant5,23,59.8726976591,F,trial,2017_May_26_1321,
,,0.62,"[-6.75, 0]",/sounds/legit/left100.wav,,,,,2,34,104,34,,,,,,,,,,,,,,,left,0.569403886795,,,,,participant5,23,59.8726976591,F,trial,2017_May_26_1321,
,,0.62,"[0, 0]",/sounds/legit/equal.wav,,,,,3,0,105,4,,,,,,,,,,,,,,,left,1.754103899,,,,,participant5,23,59.8726976591,F,trial,2017_May_26_1321,
,,0.1,"[4.5, 0]",/sounds/legit/right70.wav,,,,,3,1,106,10,,,,,,,,,,,,,,,right,0.30205988884,,,,,participant5,23,59.8726976591,F,trial,2017_May_26_1321,
,,0.62,"[2.25, 0]",/sounds/legit/right35.wav,,,,,3,2,107,9,,,,,,,,,,,,,,,right,0.218405008316,,,,,participant5,23,59.8726976591,F,trial,2017_May_26_1321,
,,0.23,"[6.75, 0]",/sounds/legit/right100.wav,,,,,3,3,108,16,,,,,,,,,,,,,,,right,0.318945884705,,,,,participant5,23,59.8726976591,F,trial,2017_May_26_1321,
,,0.36,"[4.5, 0]",/sounds/legit/right70.wav,,,,,3,4,109,12,,,,,,,,,,,,,,,right,0.268449068069,,,,,participant5,23,59.8726976591,F,trial,2017_May_26_1321,
,,0.62,"[6.75, 0]",/sounds/legit/right100.wav,,,,,3,5,110,19,,,,,,,,,,,,,,,right,0.268718004227,,,,,participant5,23,59.8726976591,F,trial,2017_May_26_1321,
,,0.62,"[4.5, 0]",/sounds/legit/right70.wav,,,,,3,6,111,14,,,,,,,,,,,,,,,right,0.168308973312,,,,,participant5,23,59.8726976591,F,trial,2017_May_26_1321,
,,0.49,"[-6.75, 0]",/sounds/legit/left100.wav,,,,,3,7,112,33,,,,,,,,,,,,,,,left,0.101735830307,,,,,participant5,23,59.8726976591,F,trial,2017_May_26_1321,
,,0.1,"[-6.75, 0]",/sounds/legit/left100.wav,,,,,3,8,113,30,,,,,,,,,,,,,,,left,0.352135896683,,,,,participant5,23,59.8726976591,F,trial,2017_May_26_1321,
,,0.1,"[2.25, 0]",/sounds/legit/right35.wav,,,,,3,9,114,5,,,,,,,,,,,,,,,left,6.34838318825,,,,,participant5,23,59.8726976591,F,trial,2017_May_26_1321,
,,0.1,"[0, 0]",/sounds/legit/equal.wav,,,,,3,10,115,0,,,,,,,,,,,,,,,left,0.585886955261,,,,,participant5,23,59.8726976591,F,trial,2017_May_26_1321,
,,0.23,"[-4.5, 0]",/sounds/legit/left70.wav,,,,,3,11,116,26,,,,,,,,,,,,,,,left,0.251917123795,,,,,participant5,23,59.8726976591,F,trial,2017_May_26_1321,
,,0.23,"[2.25, 0]",/sounds/legit/right35.wav,,,,,3,12,117,6,,,,,,,,,,,,,,,left,0.0345230102539,,,,,participant5,23,59.8726976591,F,trial,2017_May_26_1321,
,,0.62,"[-2.25, 0]",/sounds/legit/left35.wav,,,,,3,13,118,24,,,,,,,,,,,,,,,left,0.685927867889,,,,,participant5,23,59.8726976591,F,trial,2017_May_26_1321,
,,0.36,"[-2.25, 0]",/sounds/legit/left35.wav,,,,,3,14,119,22,,,,,,,,,,,,,,,left,0.268444061279,,,,,participant5,23,59.8726976591,F,trial,2017_May_26_1321,
,,0.62,"[-6.75, 0]",/sounds/legit/left100.wav,,,,,3,15,120,34,,,,,,,,,,,,,,,left,0.501525878906,,,,,participant5,23,59.8726976591,F,trial,2017_May_26_1321,
,,0.49,"[0, 0]",/sounds/legit/equal.wav,,,,,3,16,121,3,,,,,,,,,,,,,,,right,0.351769924164,,,,,participant5,23,59.8726976591,F,trial,2017_May_26_1321,
,,0.1,"[-4.5, 0]",/sounds/legit/left70.wav,,,,,3,17,122,25,,,,,,,,,,,,,,,left,0.418774843216,,,,,participant5,23,59.8726976591,F,trial,2017_May_26_1321,
,,0.49,"[-2.25, 0]",/sounds/legit/left35.wav,,,,,3,18,123,23,,,,,,,,,,,,,,,left,1.32104897499,,,,,participant5,23,59.8726976591,F,trial,2017_May_26_1321,
,,0.1,"[6.75, 0]",/sounds/legit/right100.wav,,,,,3,19,124,15,,,,,,,,,,,,,,,right,0.385458946228,,,,,participant5,23,59.8726976591,F,trial,2017_May_26_1321,
,,0.23,"[0, 0]",/sounds/legit/equal.wav,,,,,3,20,125,1,,,,,,,,,,,,,,,left,0.518199920654,,,,,participant5,23,59.8726976591,F,trial,2017_May_26_1321,
,,0.1,"[-2.25, 0]",/sounds/legit/left35.wav,,,,,3,21,126,20,,,,,,,,,,,,,,,left,0.352056980133,,,,,participant5,23,59.8726976591,F,trial,2017_May_26_1321,
,,0.36,"[2.25, 0]",/sounds/legit/right35.wav,,,,,3,22,127,7,,,,,,,,,,,,,,,right,0.134649991989,,,,,participant5,23,59.8726976591,F,trial,2017_May_26_1321,
,,0.23,"[-2.25, 0]",/sounds/legit/left35.wav,,,,,3,23,128,21,,,,,,,,,,,,,,,left,0.769727945328,,,,,participant5,23,59.8726976591,F,trial,2017_May_26_1321,
,,0.23,"[4.5, 0]",/sounds/legit/right70.wav,,,,,3,24,129,11,,,,,,,,,,,,,,,right,0.519021034241,,,,,participant5,23,59.8726976591,F,trial,2017_May_26_1321,
,,0.49,"[-4.5, 0]",/sounds/legit/left70.wav,,,,,3,25,130,28,,,,,,,,,,,,,,,left,0.285254955292,,,,,participant5,23,59.8726976591,F,trial,2017_May_26_1321,
,,0.49,"[2.25, 0]",/sounds/legit/right35.wav,,,,,3,26,131,8,,,,,,,,,,,,,,,right,0.301012039185,,,,,participant5,23,59.8726976591,F,trial,2017_May_26_1321,
,,0.23,"[-6.75, 0]",/sounds/legit/left100.wav,,,,,3,27,132,31,,,,,,,,,,,,,,,left,0.302062034607,,,,,participant5,23,59.8726976591,F,trial,2017_May_26_1321,
,,0.49,"[4.5, 0]",/sounds/legit/right70.wav,,,,,3,28,133,13,,,,,,,,,,,,,,,right,0.335361003876,,,,,participant5,23,59.8726976591,F,trial,2017_May_26_1321,
,,0.36,"[0, 0]",/sounds/legit/equal.wav,,,,,3,29,134,2,,,,,,,,,,,,,,,left,1.23741817474,,,,,participant5,23,59.8726976591,F,trial,2017_May_26_1321,
,,0.36,"[6.75, 0]",/sounds/legit/right100.wav,,,,,3,30,135,17,,,,,,,,,,,,,,,right,0.335409879684,,,,,participant5,23,59.8726976591,F,trial,2017_May_26_1321,
,,0.36,"[-4.5, 0]",/sounds/legit/left70.wav,,,,,3,31,136,27,,,,,,,,,,,,,,,left,0.352240085602,,,,,participant5,23,59.8726976591,F,trial,2017_May_26_1321,
,,0.36,"[-6.75, 0]",/sounds/legit/left100.wav,,,,,3,32,137,32,,,,,,,,,,,,,,,left,0.352016925812,,,,,participant5,23,59.8726976591,F,trial,2017_May_26_1321,
,,0.62,"[-4.5, 0]",/sounds/legit/left70.wav,,,,,3,33,138,29,,,,,,,,,,,,,,,left,0.368942022324,,,,,participant5,23,59.8726976591,F,trial,2017_May_26_1321,
,,0.49,"[6.75, 0]",/sounds/legit/right100.wav,,,,,3,34,139,18,,,,,,,,,,,,,,,right,0.385400056839,,,,,participant5,23,59.8726976591,F,trial,2017_May_26_1321,
,,0.62,"[4.5, 0]",/sounds/legit/right70.wav,,,,,4,0,140,14,,,,,,,,,,,,,,,right,0.652859926224,,,,,participant5,23,59.8726976591,F,trial,2017_May_26_1321,
,,0.1,"[4.5, 0]",/sounds/legit/right70.wav,,,,,4,1,141,10,,,,,,,,,,,,,,,right,0.351822137833,,,,,participant5,23,59.8726976591,F,trial,2017_May_26_1321,
,,0.36,"[2.25, 0]",/sounds/legit/right35.wav,,,,,4,2,142,7,,,,,,,,,,,,,,,right,0.368844032288,,,,,participant5,23,59.8726976591,F,trial,2017_May_26_1321,
,,0.49,"[-4.5, 0]",/sounds/legit/left70.wav,,,,,4,3,143,28,,,,,,,,,,,,,,,left,0.368722915649,,,,,participant5,23,59.8726976591,F,trial,2017_May_26_1321,
,,0.36,"[0, 0]",/sounds/legit/equal.wav,,,,,4,4,144,2,,,,,,,,,,,,,,,left,0.652669906616,,,,,participant5,23,59.8726976591,F,trial,2017_May_26_1321,
,,0.36,"[-6.75, 0]",/sounds/legit/left100.wav,,,,,4,5,145,32,,,,,,,,,,,,,,,left,0.452351093292,,,,,participant5,23,59.8726976591,F,trial,2017_May_26_1321,
,,0.36,"[4.5, 0]",/sounds/legit/right70.wav,,,,,4,6,146,12,,,,,,,,,,,,,,,right,0.468897819519,,,,,participant5,23,59.8726976591,F,trial,2017_May_26_1321,
,,0.49,"[6.75, 0]",/sounds/legit/right100.wav,,,,,4,7,147,18,,,,,,,,,,,,,,,right,0.519185781479,,,,,participant5,23,59.8726976591,F,trial,2017_May_26_1321,
,,0.1,"[-4.5, 0]",/sounds/legit/left70.wav,,,,,4,8,148,25,,,,,,,,,,,,,,,left,0.435474872589,,,,,participant5,23,59.8726976591,F,trial,2017_May_26_1321,
,,0.1,"[-2.25, 0]",/sounds/legit/left35.wav,,,,,4,9,149,20,,,,,,,,,,,,,,,left,0.485795974731,,,,,participant5,23,59.8726976591,F,trial,2017_May_26_1321,
,,0.23,"[0, 0]",/sounds/legit/equal.wav,,,,,4,10,150,1,,,,,,,,,,,,,,,left,0.31852889061,,,,,participant5,23,59.8726976591,F,trial,2017_May_26_1321,
,,0.36,"[-4.5, 0]",/sounds/legit/left70.wav,,,,,4,11,151,27,,,,,,,,,,,,,,,left,0.369084835052,,,,,participant5,23,59.8726976591,F,trial,2017_May_26_1321,
,,0.1,"[2.25, 0]",/sounds/legit/right35.wav,,,,,4,12,152,5,,,,,,,,,,,,,,,right,0.368657112122,,,,,participant5,23,59.8726976591,F,trial,2017_May_26_1321,
,,0.1,"[-6.75, 0]",/sounds/legit/left100.wav,,,,,4,13,153,30,,,,,,,,,,,,,,,left,0.385672807693,,,,,participant5,23,59.8726976591,F,trial,2017_May_26_1321,
,,0.49,"[0, 0]",/sounds/legit/equal.wav,,,,,4,14,154,3,,,,,,,,,,,,,,,left,1.22074985504,,,,,participant5,23,59.8726976591,F,trial,2017_May_26_1321,
,,0.23,"[-4.5, 0]",/sounds/legit/left70.wav,,,,,4,15,155,26,,,,,,,,,,,,,,,left,0.285495042801,,,,,participant5,23,59.8726976591,F,trial,2017_May_26_1321,
,,0.36,"[6.75, 0]",/sounds/legit/right100.wav,,,,,4,16,156,17,,,,,,,,,,,,,,,right,0.185240030289,,,,,participant5,23,59.8726976591,F,trial,2017_May_26_1321,
,,0.23,"[-6.75, 0]",/sounds/legit/left100.wav,,,,,4,17,157,31,,,,,,,,,,,,,,,left,0.0681669712067,,,,,participant5,23,59.8726976591,F,trial,2017_May_26_1321,
,,0.49,"[2.25, 0]",/sounds/legit/right35.wav,,,,,4,18,158,8,,,,,,,,,,,,,,,right,0.66943192482,,,,,participant5,23,59.8726976591,F,trial,2017_May_26_1321,
,,0.62,"[-6.75, 0]",/sounds/legit/left100.wav,,,,,4,19,159,34,,,,,,,,,,,,,,,left,0.16831111908,,,,,participant5,23,59.8726976591,F,trial,2017_May_26_1321,
,,0.1,"[6.75, 0]",/sounds/legit/right100.wav,,,,,4,20,160,15,,,,,,,,,,,,,,,right,0.185007095337,,,,,participant5,23,59.8726976591,F,trial,2017_May_26_1321,
,,0.62,"[-4.5, 0]",/sounds/legit/left70.wav,,,,,4,21,161,29,,,,,,,,,,,,,,,left,0.903138875961,,,,,participant5,23,59.8726976591,F,trial,2017_May_26_1321,
,,0.36,"[-2.25, 0]",/sounds/legit/left35.wav,,,,,4,22,162,22,,,,,,,,,,,,,,,left,0.218332052231,,,,,participant5,23,59.8726976591,F,trial,2017_May_26_1321,
,,0.62,"[0, 0]",/sounds/legit/equal.wav,,,,,4,23,163,4,,,,,,,,,,,,,,,left,1.42023897171,,,,,participant5,23,59.8726976591,F,trial,2017_May_26_1321,
,,0.62,"[2.25, 0]",/sounds/legit/right35.wav,,,,,4,24,164,9,,,,,,,,,,,,,,,right,0.368772029877,,,,,participant5,23,59.8726976591,F,trial,2017_May_26_1321,
,,0.23,"[6.75, 0]",/sounds/legit/right100.wav,,,,,4,25,165,16,,,,,,,,,,,,,,,right,0.469029903412,,,,,participant5,23,59.8726976591,F,trial,2017_May_26_1321,
,,0.1,"[0, 0]",/sounds/legit/equal.wav,,,,,4,26,166,0,,,,,,,,,,,,,,,left,0.485492944717,,,,,participant5,23,59.8726976591,F,trial,2017_May_26_1321,
,,0.49,"[-6.75, 0]",/sounds/legit/left100.wav,,,,,4,27,167,33,,,,,,,,,,,,,,,left,0.168349981308,,,,,participant5,23,59.8726976591,F,trial,2017_May_26_1321,
,,0.49,"[-2.25, 0]",/sounds/legit/left35.wav,,,,,4,28,168,23,,,,,,,,,,,,,,,left,0.0346159934998,,,,,participant5,23,59.8726976591,F,trial,2017_May_26_1321,
,,0.62,"[6.75, 0]",/sounds/legit/right100.wav,,,,,4,29,169,19,,,,,,,,,,,,,,,right,0.385584115982,,,,,participant5,23,59.8726976591,F,trial,2017_May_26_1321,
,,0.62,"[-2.25, 0]",/sounds/legit/left35.wav,,,,,4,30,170,24,,,,,,,,,,,,,,,left,0.38547205925,,,,,participant5,23,59.8726976591,F,trial,2017_May_26_1321,
,,0.23,"[4.5, 0]",/sounds/legit/right70.wav,,,,,4,31,171,11,,,,,,,,,,,,,,,right,0.385486841202,,,,,participant5,23,59.8726976591,F,trial,2017_May_26_1321,
,,0.49,"[4.5, 0]",/sounds/legit/right70.wav,,,,,4,32,172,13,,,,,,,,,,,,,,,right,1.03697395325,,,,,participant5,23,59.8726976591,F,trial,2017_May_26_1321,
,,0.23,"[-2.25, 0]",/sounds/legit/left35.wav,,,,,4,33,173,21,,,,,,,,,,,,,,,left,0.518944978714,,,,,participant5,23,59.8726976591,F,trial,2017_May_26_1321,
,,0.23,"[2.25, 0]",/sounds/legit/right35.wav,,,,,4,34,174,6,,,,,,,,,,,,,,,right,0.302258968353,,,,,participant5,23,59.8726976591,F,trial,2017_May_26_1321,
,,0.36,"[4.5, 0]",/sounds/legit/right70.wav,,,,,5,0,175,12,,,,,,,,,,,,,,,right,0.552676916122,,,,,participant5,23,59.8726976591,F,trial,2017_May_26_1321,
,,0.23,"[6.75, 0]",/sounds/legit/right100.wav,,,,,5,1,176,16,,,,,,,,,,,,,,,right,0.568948984146,,,,,participant5,23,59.8726976591,F,trial,2017_May_26_1321,
,,0.36,"[0, 0]",/sounds/legit/equal.wav,,,,,5,2,177,2,,,,,,,,,,,,,,,left,0.569227933884,,,,,participant5,23,59.8726976591,F,trial,2017_May_26_1321,
,,0.36,"[6.75, 0]",/sounds/legit/right100.wav,,,,,5,3,178,17,,,,,,,,,,,,,,,right,0.31849193573,,,,,participant5,23,59.8726976591,F,trial,2017_May_26_1321,
,,0.23,"[2.25, 0]",/sounds/legit/right35.wav,,,,,5,4,179,6,,,,,,,,,,,,,,,right,0.569277048111,,,,,participant5,23,59.8726976591,F,trial,2017_May_26_1321,
,,0.36,"[-6.75, 0]",/sounds/legit/left100.wav,,,,,5,5,180,32,,,,,,,,,,,,,,,left,0.402196884155,,,,,participant5,23,59.8726976591,F,trial,2017_May_26_1321,
,,0.1,"[4.5, 0]",/sounds/legit/right70.wav,,,,,5,6,181,10,,,,,,,,,,,,,,,right,0.468977928162,,,,,participant5,23,59.8726976591,F,trial,2017_May_26_1321,
,,0.49,"[4.5, 0]",/sounds/legit/right70.wav,,,,,5,7,182,13,,,,,,,,,,,,,,,right,0.468940973282,,,,,participant5,23,59.8726976591,F,trial,2017_May_26_1321,
,,0.62,"[0, 0]",/sounds/legit/equal.wav,,,,,5,8,183,4,,,,,,,,,,,,,,,right,0.869603157043,,,,,participant5,23,59.8726976591,F,trial,2017_May_26_1321,
,,0.1,"[2.25, 0]",/sounds/legit/right35.wav,,,,,5,9,184,5,,,,,,,,,,,,,,,right,0.352195978165,,,,,participant5,23,59.8726976591,F,trial,2017_May_26_1321,
,,0.49,"[-2.25, 0]",/sounds/legit/left35.wav,,,,,5,10,185,23,,,,,,,,,,,,,,,left,0.45218706131,,,,,participant5,23,59.8726976591,F,trial,2017_May_26_1321,
,,0.23,"[-2.25, 0]",/sounds/legit/left35.wav,,,,,5,11,186,21,,,,,,,,,,,,,,,left,0.719822883606,,,,,participant5,23,59.8726976591,F,trial,2017_May_26_1321,
,,0.62,"[2.25, 0]",/sounds/legit/right35.wav,,,,,5,12,187,9,,,,,,,,,,,,,,,right,0.435487985611,,,,,participant5,23,59.8726976591,F,trial,2017_May_26_1321,
,,0.36,"[2.25, 0]",/sounds/legit/right35.wav,,,,,5,13,188,7,,,,,,,,,,,,,,,right,0.485633850098,,,,,participant5,23,59.8726976591,F,trial,2017_May_26_1321,
,,0.62,"[-2.25, 0]",/sounds/legit/left35.wav,,,,,5,14,189,24,,,,,,,,,,,,,,,left,0.435492992401,,,,,participant5,23,59.8726976591,F,trial,2017_May_26_1321,
,,0.23,"[-6.75, 0]",/sounds/legit/left100.wav,,,,,5,15,190,31,,,,,,,,,,,,,,,left,0.552520036697,,,,,participant5,23,59.8726976591,F,trial,2017_May_26_1321,
,,0.62,"[-4.5, 0]",/sounds/legit/left70.wav,,,,,5,16,191,29,,,,,,,,,,,,,,,left,1.73858094215,,,,,participant5,23,59.8726976591,F,trial,2017_May_26_1321,
,,0.49,"[6.75, 0]",/sounds/legit/right100.wav,,,,,5,17,192,18,,,,,,,,,,,,,,,right,0.402102947235,,,,,participant5,23,59.8726976591,F,trial,2017_May_26_1321,
,,0.1,"[6.75, 0]",/sounds/legit/right100.wav,,,,,5,18,193,15,,,,,,,,,,,,,,,right,0.402187824249,,,,,participant5,23,59.8726976591,F,trial,2017_May_26_1321,
,,0.49,"[2.25, 0]",/sounds/legit/right35.wav,,,,,5,19,194,8,,,,,,,,,,,,,,,right,0.535514116287,,,,,participant5,23,59.8726976591,F,trial,2017_May_26_1321,
,,0.1,"[-4.5, 0]",/sounds/legit/left70.wav,,,,,5,20,195,25,,,,,,,,,,,,,,,left,0.418833017349,,,,,participant5,23,59.8726976591,F,trial,2017_May_26_1321,
,,0.1,"[-2.25, 0]",/sounds/legit/left35.wav,,,,,5,21,196,20,,,,,,,,,,,,,,,left,0.786226034164,,,,,participant5,23,59.8726976591,F,trial,2017_May_26_1321,
,,0.62,"[6.75, 0]",/sounds/legit/right100.wav,,,,,5,22,197,19,,,,,,,,,,,,,,,right,0.185128927231,,,,,participant5,23,59.8726976591,F,trial,2017_May_26_1321,
,,0.62,"[-6.75, 0]",/sounds/legit/left100.wav,,,,,5,23,198,34,,,,,,,,,,,,,,,left,0.368875026703,,,,,participant5,23,59.8726976591,F,trial,2017_May_26_1321,
,,0.23,"[4.5, 0]",/sounds/legit/right70.wav,,,,,5,24,199,11,,,,,,,,,,,,,,,right,0.368842124939,,,,,participant5,23,59.8726976591,F,trial,2017_May_26_1321,
,,0.49,"[-4.5, 0]",/sounds/legit/left70.wav,,,,,5,25,200,28,,,,,,,,,,,,,,,left,0.268701076508,,,,,participant5,23,59.8726976591,F,trial,2017_May_26_1321,
,,0.1,"[-6.75, 0]",/sounds/legit/left100.wav,,,,,5,26,201,30,,,,,,,,,,,,,,,left,0.385509967804,,,,,participant5,23,59.8726976591,F,trial,2017_May_26_1321,
,,0.23,"[-4.5, 0]",/sounds/legit/left70.wav,,,,,5,27,202,26,,,,,,,,,,,,,,,left,0.335349798203,,,,,participant5,23,59.8726976591,F,trial,2017_May_26_1321,
,,0.49,"[-6.75, 0]",/sounds/legit/left100.wav,,,,,5,28,203,33,,,,,,,,,,,,,,,left,0.786139965057,,,,,participant5,23,59.8726976591,F,trial,2017_May_26_1321,
,,0.36,"[-4.5, 0]",/sounds/legit/left70.wav,,,,,5,29,204,27,,,,,,,,,,,,,,,left,1.0703868866,,,,,participant5,23,59.8726976591,F,trial,2017_May_26_1321,
,,0.23,"[0, 0]",/sounds/legit/equal.wav,,,,,5,30,205,1,,,,,,,,,,,,,,,left,1.12019205093,,,,,participant5,23,59.8726976591,F,trial,2017_May_26_1321,
,,0.49,"[0, 0]",/sounds/legit/equal.wav,,,,,5,31,206,3,,,,,,,,,,,,,,,left,0.418762922287,,,,,participant5,23,59.8726976591,F,trial,2017_May_26_1321,
,,0.36,"[-2.25, 0]",/sounds/legit/left35.wav,,,,,5,32,207,22,,,,,,,,,,,,,,,left,2.20600223541,,,,,participant5,23,59.8726976591,F,trial,2017_May_26_1321,
,,0.1,"[0, 0]",/sounds/legit/equal.wav,,,,,5,33,208,0,,,,,,,,,,,,,,,right,0.435874938965,,,,,participant5,23,59.8726976591,F,trial,2017_May_26_1321,
,,0.62,"[4.5, 0]",/sounds/legit/right70.wav,,,,,5,34,209,14,,,,,,,,,,,,,,,right,0.602563142776,,,,,participant5,23,59.8726976591,F,trial,2017_May_26_1321,
,,0.49,"[-6.75, 0]",/sounds/legit/left100.wav,,,,,6,0,210,33,,,,,,,,,,,,,,,left,0.35215306282,,,,,participant5,23,59.8726976591,F,trial,2017_May_26_1321,
,,0.49,"[6.75, 0]",/sounds/legit/right100.wav,,,,,6,1,211,18,,,,,,,,,,,,,,,right,0.518945932388,,,,,participant5,23,59.8726976591,F,trial,2017_May_26_1321,
,,0.49,"[-2.25, 0]",/sounds/legit/left35.wav,,,,,6,2,212,23,,,,,,,,,,,,,,,left,1.5545091629,,,,,participant5,23,59.8726976591,F,trial,2017_May_26_1321,
,,0.23,"[2.25, 0]",/sounds/legit/right35.wav,,,,,6,3,213,6,,,,,,,,,,,,,,,right,0.285254955292,,,,,participant5,23,59.8726976591,F,trial,2017_May_26_1321,
,,0.49,"[0, 0]",/sounds/legit/equal.wav,,,,,6,4,214,3,,,,,,,,,,,,,,,left,0.753160953522,,,,,participant5,23,59.8726976591,F,trial,2017_May_26_1321,
,,0.36,"[4.5, 0]",/sounds/legit/right70.wav,,,,,6,5,215,12,,,,,,,,,,,,,,,right,0.53581404686,,,,,participant5,23,59.8726976591,F,trial,2017_May_26_1321,
,,0.23,"[-4.5, 0]",/sounds/legit/left70.wav,,,,,6,6,216,26,,,,,,,,,,,,,,,left,0.435541152954,,,,,participant5,23,59.8726976591,F,trial,2017_May_26_1321,
,,0.62,"[2.25, 0]",/sounds/legit/right35.wav,,,,,6,7,217,9,,,,,,,,,,,,,,,right,1.00339913368,,,,,participant5,23,59.8726976591,F,trial,2017_May_26_1321,
,,0.62,"[-2.25, 0]",/sounds/legit/left35.wav,,,,,6,8,218,24,,,,,,,,,,,,,,,left,0.402068138123,,,,,participant5,23,59.8726976591,F,trial,2017_May_26_1321,
,,0.62,"[4.5, 0]",/sounds/legit/right70.wav,,,,,6,9,219,14,,,,,,,,,,,,,,,right,0.502228021622,,,,,participant5,23,59.8726976591,F,trial,2017_May_26_1321,
,,0.36,"[2.25, 0]",/sounds/legit/right35.wav,,,,,6,10,220,7,,,,,,,,,,,,,,,right,0.318773984909,,,,,participant5,23,59.8726976591,F,trial,2017_May_26_1321,
,,0.49,"[-4.5, 0]",/sounds/legit/left70.wav,,,,,6,11,221,28,,,,,,,,,,,,,,,left,0.418947935104,,,,,participant5,23,59.8726976591,F,trial,2017_May_26_1321,
,,0.36,"[-6.75, 0]",/sounds/legit/left100.wav,,,,,6,12,222,32,,,,,,,,,,,,,,,left,0.519296884537,,,,,participant5,23,59.8726976591,F,trial,2017_May_26_1321,
,,0.1,"[6.75, 0]",/sounds/legit/right100.wav,,,,,6,13,223,15,,,,,,,,,,,,,,,right,0.519001960754,,,,,participant5,23,59.8726976591,F,trial,2017_May_26_1321,
,,0.36,"[-4.5, 0]",/sounds/legit/left70.wav,,,,,6,14,224,27,,,,,,,,,,,,,,,left,1.07017612457,,,,,participant5,23,59.8726976591,F,trial,2017_May_26_1321,
,,0.1,"[0, 0]",/sounds/legit/equal.wav,,,,,6,15,225,0,,,,,,,,,,,,,,,left,0.619151115417,,,,,participant5,23,59.8726976591,F,trial,2017_May_26_1321,
,,0.62,"[-6.75, 0]",/sounds/legit/left100.wav,,,,,6,16,226,34,,,,,,,,,,,,,,,left,0.652835130692,,,,,participant5,23,59.8726976591,F,trial,2017_May_26_1321,
,,0.36,"[0, 0]",/sounds/legit/equal.wav,,,,,6,17,227,2,,,,,,,,,,,,,,,left,0.602742910385,,,,,participant5,23,59.8726976591,F,trial,2017_May_26_1321,
,,0.23,"[4.5, 0]",/sounds/legit/right70.wav,,,,,6,18,228,11,,,,,,,,,,,,,,,right,0.369004011154,,,,,participant5,23,59.8726976591,F,trial,2017_May_26_1321,
,,0.1,"[4.5, 0]",/sounds/legit/right70.wav,,,,,6,19,229,10,,,,,,,,,,,,,,,right,0.285008907318,,,,,participant5,23,59.8726976591,F,trial,2017_May_26_1321,
,,0.1,"[2.25, 0]",/sounds/legit/right35.wav,,,,,6,20,230,5,,,,,,,,,,,,,,,right,0.419065952301,,,,,participant5,23,59.8726976591,F,trial,2017_May_26_1321,
,,0.1,"[-2.25, 0]",/sounds/legit/left35.wav,,,,,6,21,231,20,,,,,,,,,,,,,,,right,0.419007062912,,,,,participant5,23,59.8726976591,F,trial,2017_May_26_1321,
,,0.23,"[-6.75, 0]",/sounds/legit/left100.wav,,,,,6,22,232,31,,,,,,,,,,,,,,,left,0.352246999741,,,,,participant5,23,59.8726976591,F,trial,2017_May_26_1321,
,,0.23,"[0, 0]",/sounds/legit/equal.wav,,,,,6,23,233,1,,,,,,,,,,,,,,,left,0.43568110466,,,,,participant5,23,59.8726976591,F,trial,2017_May_26_1321,
,,0.1,"[-4.5, 0]",/sounds/legit/left70.wav,,,,,6,24,234,25,,,,,,,,,,,,,,,left,0.402213096619,,,,,participant5,23,59.8726976591,F,trial,2017_May_26_1321,
,,0.23,"[-2.25, 0]",/sounds/legit/left35.wav,,,,,6,25,235,21,,,,,,,,,,,,,,,left,0.41871714592,,,,,participant5,23,59.8726976591,F,trial,2017_May_26_1321,
,,0.49,"[4.5, 0]",/sounds/legit/right70.wav,,,,,6,26,236,13,,,,,,,,,,,,,,,right,0.385154008865,,,,,participant5,23,59.8726976591,F,trial,2017_May_26_1321,
,,0.49,"[2.25, 0]",/sounds/legit/right35.wav,,,,,6,27,237,8,,,,,,,,,,,,,,,right,0.368906974792,,,,,participant5,23,59.8726976591,F,trial,2017_May_26_1321,
,,0.36,"[6.75, 0]",/sounds/legit/right100.wav,,,,,6,28,238,17,,,,,,,,,,,,,,,right,0.335543870926,,,,,participant5,23,59.8726976591,F,trial,2017_May_26_1321,
,,0.23,"[6.75, 0]",/sounds/legit/right100.wav,,,,,6,29,239,16,,,,,,,,,,,,,,,right,0.418850898743,,,,,participant5,23,59.8726976591,F,trial,2017_May_26_1321,
,,0.1,"[-6.75, 0]",/sounds/legit/left100.wav,,,,,6,30,240,30,,,,,,,,,,,,,,,left,0.302007913589,,,,,participant5,23,59.8726976591,F,trial,2017_May_26_1321,
,,0.62,"[-4.5, 0]",/sounds/legit/left70.wav,,,,,6,31,241,29,,,,,,,,,,,,,,,left,0.552391052246,,,,,participant5,23,59.8726976591,F,trial,2017_May_26_1321,
,,0.36,"[-2.25, 0]",/sounds/legit/left35.wav,,,,,6,32,242,22,,,,,,,,,,,,,,,right,0.569259881973,,,,,participant5,23,59.8726976591,F,trial,2017_May_26_1321,
,,0.62,"[6.75, 0]",/sounds/legit/right100.wav,,,,,6,33,243,19,,,,,,,,,,,,,,,right,1.83843302727,,,,,participant5,23,59.8726976591,F,trial,2017_May_26_1321,
,,0.62,"[0, 0]",/sounds/legit/equal.wav,,,,,6,34,244,4,,,,,,,,,,,,,,,left,0.335577964783,,,,,participant5,23,59.8726976591,F,trial,2017_May_26_1321,
,,0.62,"[6.75, 0]",/sounds/legit/right100.wav,,,,,7,0,245,19,,,,,,,,,,,,,,,right,0.301893949509,,,,,participant5,23,59.8726976591,F,trial,2017_May_26_1321,
,,0.36,"[0, 0]",/sounds/legit/equal.wav,,,,,7,1,246,2,,,,,,,,,,,,,,,left,2.55661702156,,,,,participant5,23,59.8726976591,F,trial,2017_May_26_1321,
,,0.23,"[-4.5, 0]",/sounds/legit/left70.wav,,,,,7,2,247,26,,,,,,,,,,,,,,,left,0.351869106293,,,,,participant5,23,59.8726976591,F,trial,2017_May_26_1321,
,,0.23,"[0, 0]",/sounds/legit/equal.wav,,,,,7,3,248,1,,,,,,,,,,,,,,,left,0.418855905533,,,,,participant5,23,59.8726976591,F,trial,2017_May_26_1321,
,,0.23,"[-2.25, 0]",/sounds/legit/left35.wav,,,,,7,4,249,21,,,,,,,,,,,,,,,left,0.352217912674,,,,,participant5,23,59.8726976591,F,trial,2017_May_26_1321,
,,0.1,"[-6.75, 0]",/sounds/legit/left100.wav,,,,,7,5,250,30,,,,,,,,,,,,,,,left,0.519052028656,,,,,participant5,23,59.8726976591,F,trial,2017_May_26_1321,
,,0.1,"[-2.25, 0]",/sounds/legit/left35.wav,,,,,7,6,251,20,,,,,,,,,,,,,,,left,0.367631912231,,,,,participant5,23,59.8726976591,F,trial,2017_May_26_1321,
,,0.1,"[2.25, 0]",/sounds/legit/right35.wav,,,,,7,7,252,5,,,,,,,,,,,,,,,right,0.285155057907,,,,,participant5,23,59.8726976591,F,trial,2017_May_26_1321,
,,0.1,"[-4.5, 0]",/sounds/legit/left70.wav,,,,,7,8,253,25,,,,,,,,,,,,,,,left,0.402359008789,,,,,participant5,23,59.8726976591,F,trial,2017_May_26_1321,
,,0.23,"[4.5, 0]",/sounds/legit/right70.wav,,,,,7,9,254,11,,,,,,,,,,,,,,,right,0.301120042801,,,,,participant5,23,59.8726976591,F,trial,2017_May_26_1321,
,,0.23,"[6.75, 0]",/sounds/legit/right100.wav,,,,,7,10,255,16,,,,,,,,,,,,,,,right,0.318617105484,,,,,participant5,23,59.8726976591,F,trial,2017_May_26_1321,
,,0.36,"[-6.75, 0]",/sounds/legit/left100.wav,,,,,7,11,256,32,,,,,,,,,,,,,,,left,0.31872010231,,,,,participant5,23,59.8726976591,F,trial,2017_May_26_1321,
,,0.49,"[-6.75, 0]",/sounds/legit/left100.wav,,,,,7,12,257,33,,,,,,,,,,,,,,,left,0.585922956467,,,,,participant5,23,59.8726976591,F,trial,2017_May_26_1321,
,,0.49,"[-2.25, 0]",/sounds/legit/left35.wav,,,,,7,13,258,23,,,,,,,,,,,,,,,left,0.300868988037,,,,,participant5,23,59.8726976591,F,trial,2017_May_26_1321,
,,0.49,"[-4.5, 0]",/sounds/legit/left70.wav,,,,,7,14,259,28,,,,,,,,,,,,,,,left,0.485685110092,,,,,participant5,23,59.8726976591,F,trial,2017_May_26_1321,
,,0.49,"[6.75, 0]",/sounds/legit/right100.wav,,,,,7,15,260,18,,,,,,,,,,,,,,,right,0.318784952164,,,,,participant5,23,59.8726976591,F,trial,2017_May_26_1321,
,,0.62,"[-2.25, 0]",/sounds/legit/left35.wav,,,,,7,16,261,24,,,,,,,,,,,,,,,left,0.485767126083,,,,,participant5,23,59.8726976591,F,trial,2017_May_26_1321,
,,0.36,"[2.25, 0]",/sounds/legit/right35.wav,,,,,7,17,262,7,,,,,,,,,,,,,,,right,0.417948007584,,,,,participant5,23,59.8726976591,F,trial,2017_May_26_1321,
,,0.36,"[-2.25, 0]",/sounds/legit/left35.wav,,,,,7,18,263,22,,,,,,,,,,,,,,,left,0.418872117996,,,,,participant5,23,59.8726976591,F,trial,2017_May_26_1321,
,,0.49,"[4.5, 0]",/sounds/legit/right70.wav,,,,,7,19,264,13,,,,,,,,,,,,,,,right,0.285259962082,,,,,participant5,23,59.8726976591,F,trial,2017_May_26_1321,
,,0.62,"[4.5, 0]",/sounds/legit/right70.wav,,,,,7,20,265,14,,,,,,,,,,,,,,,right,0.352179050446,,,,,participant5,23,59.8726976591,F,trial,2017_May_26_1321,
,,0.62,"[-4.5, 0]",/sounds/legit/left70.wav,,,,,7,21,266,29,,,,,,,,,,,,,,,left,0.385471105576,,,,,participant5,23,59.8726976591,F,trial,2017_May_26_1321,
,,0.1,"[0, 0]",/sounds/legit/equal.wav,,,,,7,22,267,0,,,,,,,,,,,,,,,left,0.201807975769,,,,,participant5,23,59.8726976591,F,trial,2017_May_26_1321,
,,0.62,"[-6.75, 0]",/sounds/legit/left100.wav,,,,,7,23,268,34,,,,,,,,,,,,,,,left,0.385329008102,,,,,participant5,23,59.8726976591,F,trial,2017_May_26_1321,
,,0.62,"[0, 0]",/sounds/legit/equal.wav,,,,,7,24,269,4,,,,,,,,,,,,,,,left,0.619247913361,,,,,participant5,23,59.8726976591,F,trial,2017_May_26_1321,
,,0.62,"[2.25, 0]",/sounds/legit/right35.wav,,,,,7,25,270,9,,,,,,,,,,,,,,,right,0.285262107849,,,,,participant5,23,59.8726976591,F,trial,2017_May_26_1321,
,,0.23,"[-6.75, 0]",/sounds/legit/left100.wav,,,,,7,26,271,31,,,,,,,,,,,,,,,left,0.285376787186,,,,,participant5,23,59.8726976591,F,trial,2017_May_26_1321,
,,0.49,"[0, 0]",/sounds/legit/equal.wav,,,,,7,27,272,3,,,,,,,,,,,,,,,right,0.302131175995,,,,,participant5,23,59.8726976591,F,trial,2017_May_26_1321,
,,0.49,"[2.25, 0]",/sounds/legit/right35.wav,,,,,7,28,273,8,,,,,,,,,,,,,,,right,0.335323810577,,,,,participant5,23,59.8726976591,F,trial,2017_May_26_1321,
,,0.36,"[4.5, 0]",/sounds/legit/right70.wav,,,,,7,29,274,12,,,,,,,,,,,,,,,right,0.485586166382,,,,,participant5,23,59.8726976591,F,trial,2017_May_26_1321,
,,0.23,"[2.25, 0]",/sounds/legit/right35.wav,,,,,7,30,275,6,,,,,,,,,,,,,,,right,0.285367965698,,,,,participant5,23,59.8726976591,F,trial,2017_May_26_1321,
,,0.36,"[-4.5, 0]",/sounds/legit/left70.wav,,,,,7,31,276,27,,,,,,,,,,,,,,,left,0.385581016541,,,,,participant5,23,59.8726976591,F,trial,2017_May_26_1321,
,,0.1,"[6.75, 0]",/sounds/legit/right100.wav,,,,,7,32,277,15,,,,,,,,,,,,,,,right,0.402205944061,,,,,participant5,23,59.8726976591,F,trial,2017_May_26_1321,
,,0.1,"[4.5, 0]",/sounds/legit/right70.wav,,,,,7,33,278,10,,,,,,,,,,,,,,,right,0.368885993958,,,,,participant5,23,59.8726976591,F,trial,2017_May_26_1321,
,,0.36,"[6.75, 0]",/sounds/legit/right100.wav,,,,,7,34,279,17,,,,,,,,,,,,,,,right,0.452283143997,,,,,participant5,23,59.8726976591,F,trial,2017_May_26_1321,
,,0.62,"[0, 0]",/sounds/legit/equal.wav,,,,,8,0,280,4,,,,,,,,,,,,,,,right,0.58577299118,,,,,participant5,23,59.8726976591,F,trial,2017_May_26_1321,
,,0.1,"[-6.75, 0]",/sounds/legit/left100.wav,,,,,8,1,281,30,,,,,,,,,,,,,,,left,0.285323143005,,,,,participant5,23,59.8726976591,F,trial,2017_May_26_1321,
,,0.49,"[-2.25, 0]",/sounds/legit/left35.wav,,,,,8,2,282,23,,,,,,,,,,,,,,,left,0.0848278999329,,,,,participant5,23,59.8726976591,F,trial,2017_May_26_1321,
,,0.62,"[-6.75, 0]",/sounds/legit/left100.wav,,,,,8,3,283,34,,,,,,,,,,,,,,,left,0.702698945999,,,,,participant5,23,59.8726976591,F,trial,2017_May_26_1321,
,,0.23,"[-4.5, 0]",/sounds/legit/left70.wav,,,,,8,4,284,26,,,,,,,,,,,,,,,left,0.235193967819,,,,,participant5,23,59.8726976591,F,trial,2017_May_26_1321,
,,0.23,"[-2.25, 0]",/sounds/legit/left35.wav,,,,,8,5,285,21,,,,,,,,,,,,,,,left,0.318598985672,,,,,participant5,23,59.8726976591,F,trial,2017_May_26_1321,
,,0.36,"[-2.25, 0]",/sounds/legit/left35.wav,,,,,8,6,286,22,,,,,,,,,,,,,,,left,0.58603811264,,,,,participant5,23,59.8726976591,F,trial,2017_May_26_1321,
,,0.49,"[-6.75, 0]",/sounds/legit/left100.wav,,,,,8,7,287,33,,,,,,,,,,,,,,,left,0.385432958603,,,,,participant5,23,59.8726976591,F,trial,2017_May_26_1321,
,,0.62,"[-4.5, 0]",/sounds/legit/left70.wav,,,,,8,8,288,29,,,,,,,,,,,,,,,left,0.335376977921,,,,,participant5,23,59.8726976591,F,trial,2017_May_26_1321,
,,0.36,"[2.25, 0]",/sounds/legit/right35.wav,,,,,8,9,289,7,,,,,,,,,,,,,,,right,0.185156106949,,,,,participant5,23,59.8726976591,F,trial,2017_May_26_1321,
,,0.49,"[4.5, 0]",/sounds/legit/right70.wav,,,,,8,10,290,13,,,,,,,,,,,,,,,right,0.48580789566,,,,,participant5,23,59.8726976591,F,trial,2017_May_26_1321,
,,0.23,"[0, 0]",/sounds/legit/equal.wav,,,,,8,11,291,1,,,,,,,,,,,,,,,left,0.970054149628,,,,,participant5,23,59.8726976591,F,trial,2017_May_26_1321,
,,0.23,"[-6.75, 0]",/sounds/legit/left100.wav,,,,,8,12,292,31,,,,,,,,,,,,,,,left,0.485563993454,,,,,participant5,23,59.8726976591,F,trial,2017_May_26_1321,
,,0.36,"[-6.75, 0]",/sounds/legit/left100.wav,,,,,8,13,293,32,,,,,,,,,,,,,,,left,0.40237402916,,,,,participant5,23,59.8726976591,F,trial,2017_May_26_1321,
,,0.36,"[-4.5, 0]",/sounds/legit/left70.wav,,,,,8,14,294,27,,,,,,,,,,,,,,,left,0.435281038284,,,,,participant5,23,59.8726976591,F,trial,2017_May_26_1321,
,,0.1,"[4.5, 0]",/sounds/legit/right70.wav,,,,,8,15,295,10,,,,,,,,,,,,,,,right,0.352074146271,,,,,participant5,23,59.8726976591,F,trial,2017_May_26_1321,
,,0.62,"[6.75, 0]",/sounds/legit/right100.wav,,,,,8,16,296,19,,,,,,,,,,,,,,,right,0.4354159832,,,,,participant5,23,59.8726976591,F,trial,2017_May_26_1321,
,,0.49,"[2.25, 0]",/sounds/legit/right35.wav,,,,,8,17,297,8,,,,,,,,,,,,,,,right,0.368786096573,,,,,participant5,23,59.8726976591,F,trial,2017_May_26_1321,
,,0.1,"[0, 0]",/sounds/legit/equal.wav,,,,,8,18,298,0,,,,,,,,,,,,,,,left,0.93658208847,,,,,participant5,23,59.8726976591,F,trial,2017_May_26_1321,
,,0.1,"[2.25, 0]",/sounds/legit/right35.wav,,,,,8,19,299,5,,,,,,,,,,,,,,,right,0.402029037476,,,,,participant5,23,59.8726976591,F,trial,2017_May_26_1321,
,,0.1,"[-2.25, 0]",/sounds/legit/left35.wav,,,,,8,20,300,20,,,,,,,,,,,,,,,left,0.434406042099,,,,,participant5,23,59.8726976591,F,trial,2017_May_26_1321,
,,0.36,"[4.5, 0]",/sounds/legit/right70.wav,,,,,8,21,301,12,,,,,,,,,,,,,,,right,0.351930856705,,,,,participant5,23,59.8726976591,F,trial,2017_May_26_1321,
,,0.62,"[4.5, 0]",/sounds/legit/right70.wav,,,,,8,22,302,14,,,,,,,,,,,,,,,right,0.385751962662,,,,,participant5,23,59.8726976591,F,trial,2017_May_26_1321,
,,0.62,"[2.25, 0]",/sounds/legit/right35.wav,,,,,8,23,303,9,,,,,,,,,,,,,,,right,0.335465908051,,,,,participant5,23,59.8726976591,F,trial,2017_May_26_1321,
,,0.49,"[-4.5, 0]",/sounds/legit/left70.wav,,,,,8,24,304,28,,,,,,,,,,,,,,,left,0.36882686615,,,,,participant5,23,59.8726976591,F,trial,2017_May_26_1321,
,,0.23,"[6.75, 0]",/sounds/legit/right100.wav,,,,,8,25,305,16,,,,,,,,,,,,,,,right,0.50236582756,,,,,participant5,23,59.8726976591,F,trial,2017_May_26_1321,
,,0.36,"[6.75, 0]",/sounds/legit/right100.wav,,,,,8,26,306,17,,,,,,,,,,,,,,,right,0.318483829498,,,,,participant5,23,59.8726976591,F,trial,2017_May_26_1321,
,,0.36,"[0, 0]",/sounds/legit/equal.wav,,,,,8,27,307,2,,,,,,,,,,,,,,,left,0.602643966675,,,,,participant5,23,59.8726976591,F,trial,2017_May_26_1321,
,,0.23,"[4.5, 0]",/sounds/legit/right70.wav,,,,,8,28,308,11,,,,,,,,,,,,,,,right,0.402158021927,,,,,participant5,23,59.8726976591,F,trial,2017_May_26_1321,
,,0.1,"[-4.5, 0]",/sounds/legit/left70.wav,,,,,8,29,309,25,,,,,,,,,,,,,,,left,0.385401964188,,,,,participant5,23,59.8726976591,F,trial,2017_May_26_1321,
,,0.23,"[2.25, 0]",/sounds/legit/right35.wav,,,,,8,30,310,6,,,,,,,,,,,,,,,right,0.368949174881,,,,,participant5,23,59.8726976591,F,trial,2017_May_26_1321,
,,0.62,"[-2.25, 0]",/sounds/legit/left35.wav,,,,,8,31,311,24,,,,,,,,,,,,,,,left,0.886482000351,,,,,participant5,23,59.8726976591,F,trial,2017_May_26_1321,
,,0.1,"[6.75, 0]",/sounds/legit/right100.wav,,,,,8,32,312,15,,,,,,,,,,,,,,,right,0.435498952866,,,,,participant5,23,59.8726976591,F,trial,2017_May_26_1321,
,,0.49,"[0, 0]",/sounds/legit/equal.wav,,,,,8,33,313,3,,,,,,,,,,,,,,,left,0.318665981293,,,,,participant5,23,59.8726976591,F,trial,2017_May_26_1321,
,,0.49,"[6.75, 0]",/sounds/legit/right100.wav,,,,,8,34,314,18,,,,,,,,,,,,,,,right,0.402092933655,,,,,participant5,23,59.8726976591,F,trial,2017_May_26_1321,
,,0.23,"[-4.5, 0]",/sounds/legit/left70.wav,,,,,9,0,315,26,,,,,,,,,,,,,,,left,0.452255964279,,,,,participant5,23,59.8726976591,F,trial,2017_May_26_1321,
,,0.62,"[6.75, 0]",/sounds/legit/right100.wav,,,,,9,1,316,19,,,,,,,,,,,,,,,right,0.28529214859,,,,,participant5,23,59.8726976591,F,trial,2017_May_26_1321,
,,0.1,"[6.75, 0]",/sounds/legit/right100.wav,,,,,9,2,317,15,,,,,,,,,,,,,,,right,0.43572807312,,,,,participant5,23,59.8726976591,F,trial,2017_May_26_1321,
,,0.49,"[-6.75, 0]",/sounds/legit/left100.wav,,,,,9,3,318,33,,,,,,,,,,,,,,,left,0.469075202942,,,,,participant5,23,59.8726976591,F,trial,2017_May_26_1321,
,,0.49,"[0, 0]",/sounds/legit/equal.wav,,,,,9,4,319,3,,,,,,,,,,,,,,,left,0.352145195007,,,,,participant5,23,59.8726976591,F,trial,2017_May_26_1321,
,,0.36,"[4.5, 0]",/sounds/legit/right70.wav,,,,,9,5,320,12,,,,,,,,,,,,,,,right,0.335417032242,,,,,participant5,23,59.8726976591,F,trial,2017_May_26_1321,
,,0.23,"[2.25, 0]",/sounds/legit/right35.wav,,,,,9,6,321,6,,,,,,,,,,,,,,,right,0.402035951614,,,,,participant5,23,59.8726976591,F,trial,2017_May_26_1321,
,,0.49,"[2.25, 0]",/sounds/legit/right35.wav,,,,,9,7,322,8,,,,,,,,,,,,,,,right,0.351998090744,,,,,participant5,23,59.8726976591,F,trial,2017_May_26_1321,
,,0.23,"[-2.25, 0]",/sounds/legit/left35.wav,,,,,9,8,323,21,,,,,,,,,,,,,,,left,0.568266868591,,,,,participant5,23,59.8726976591,F,trial,2017_May_26_1321,
,,0.36,"[-6.75, 0]",/sounds/legit/left100.wav,,,,,9,9,324,32,,,,,,,,,,,,,,,left,0.335294008255,,,,,participant5,23,59.8726976591,F,trial,2017_May_26_1321,
,,0.62,"[0, 0]",/sounds/legit/equal.wav,,,,,9,10,325,4,,,,,,,,,,,,,,,right,0.402326822281,,,,,participant5,23,59.8726976591,F,trial,2017_May_26_1321,
,,0.36,"[-2.25, 0]",/sounds/legit/left35.wav,,,,,9,11,326,22,,,,,,,,,,,,,,,left,0.335360050201,,,,,participant5,23,59.8726976591,F,trial,2017_May_26_1321,
,,0.36,"[0, 0]",/sounds/legit/equal.wav,,,,,9,12,327,2,,,,,,,,,,,,,,,left,0.485619068146,,,,,participant5,23,59.8726976591,F,trial,2017_May_26_1321,
,,0.23,"[6.75, 0]",/sounds/legit/right100.wav,,,,,9,13,328,16,,,,,,,,,,,,,,,right,0.3521900177,,,,,participant5,23,59.8726976591,F,trial,2017_May_26_1321,
,,0.36,"[2.25, 0]",/sounds/legit/right35.wav,,,,,9,14,329,7,,,,,,,,,,,,,,,right,0.352123022079,,,,,participant5,23,59.8726976591,F,trial,2017_May_26_1321,
,,0.1,"[-4.5, 0]",/sounds/legit/left70.wav,,,,,9,15,330,25,,,,,,,,,,,,,,,left,0.434634923935,,,,,participant5,23,59.8726976591,F,trial,2017_May_26_1321,
,,0.23,"[0, 0]",/sounds/legit/equal.wav,,,,,9,16,331,1,,,,,,,,,,,,,,,left,0.452133178711,,,,,participant5,23,59.8726976591,F,trial,2017_May_26_1321,
,,0.23,"[4.5, 0]",/sounds/legit/right70.wav,,,,,9,17,332,11,,,,,,,,,,,,,,,right,0.368777036667,,,,,participant5,23,59.8726976591,F,trial,2017_May_26_1321,
,,0.62,"[4.5, 0]",/sounds/legit/right70.wav,,,,,9,18,333,14,,,,,,,,,,,,,,,right,0.419159889221,,,,,participant5,23,59.8726976591,F,trial,2017_May_26_1321,
,,0.1,"[-6.75, 0]",/sounds/legit/left100.wav,,,,,9,19,334,30,,,,,,,,,,,,,,,left,0.285434007645,,,,,participant5,23,59.8726976591,F,trial,2017_May_26_1321,
,,0.1,"[4.5, 0]",/sounds/legit/right70.wav,,,,,9,20,335,10,,,,,,,,,,,,,,,right,0.302050113678,,,,,participant5,23,59.8726976591,F,trial,2017_May_26_1321,
,,0.36,"[6.75, 0]",/sounds/legit/right100.wav,,,,,9,21,336,17,,,,,,,,,,,,,,,right,0.335391998291,,,,,participant5,23,59.8726976591,F,trial,2017_May_26_1321,
,,0.49,"[6.75, 0]",/sounds/legit/right100.wav,,,,,9,22,337,18,,,,,,,,,,,,,,,right,0.285454034805,,,,,participant5,23,59.8726976591,F,trial,2017_May_26_1321,
,,0.1,"[-2.25, 0]",/sounds/legit/left35.wav,,,,,9,23,338,20,,,,,,,,,,,,,,,left,0.151644945145,,,,,participant5,23,59.8726976591,F,trial,2017_May_26_1321,
,,0.62,"[-2.25, 0]",/sounds/legit/left35.wav,,,,,9,24,339,24,,,,,,,,,,,,,,,left,0.268377065659,,,,,participant5,23,59.8726976591,F,trial,2017_May_26_1321,
,,0.1,"[0, 0]",/sounds/legit/equal.wav,,,,,9,25,340,0,,,,,,,,,,,,,,,left,0.468771934509,,,,,participant5,23,59.8726976591,F,trial,2017_May_26_1321,
,,0.62,"[2.25, 0]",/sounds/legit/right35.wav,,,,,9,26,341,9,,,,,,,,,,,,,,,right,0.418869018555,,,,,participant5,23,59.8726976591,F,trial,2017_May_26_1321,
,,0.49,"[-2.25, 0]",/sounds/legit/left35.wav,,,,,9,27,342,23,,,,,,,,,,,,,,,left,0.318706035614,,,,,participant5,23,59.8726976591,F,trial,2017_May_26_1321,
,,0.36,"[-4.5, 0]",/sounds/legit/left70.wav,,,,,9,28,343,27,,,,,,,,,,,,,,,left,0.218461036682,,,,,participant5,23,59.8726976591,F,trial,2017_May_26_1321,
,,0.49,"[-4.5, 0]",/sounds/legit/left70.wav,,,,,9,29,344,28,,,,,,,,,,,,,,,left,0.268762111664,,,,,participant5,23,59.8726976591,F,trial,2017_May_26_1321,
,,0.1,"[2.25, 0]",/sounds/legit/right35.wav,,,,,9,30,345,5,,,,,,,,,,,,,,,right,0.218402862549,,,,,participant5,23,59.8726976591,F,trial,2017_May_26_1321,
,,0.23,"[-6.75, 0]",/sounds/legit/left100.wav,,,,,9,31,346,31,,,,,,,,,,,,,,,left,0.30211687088,,,,,participant5,23,59.8726976591,F,trial,2017_May_26_1321,
,,0.49,"[4.5, 0]",/sounds/legit/right70.wav,,,,,9,32,347,13,,,,,,,,,,,,,,,right,0.251732110977,,,,,participant5,23,59.8726976591,F,trial,2017_May_26_1321,
,,0.62,"[-4.5, 0]",/sounds/legit/left70.wav,,,,,9,33,348,29,,,,,,,,,,,,,,,left,0.251858949661,,,,,participant5,23,59.8726976591,F,trial,2017_May_26_1321,
,,0.62,"[-6.75, 0]",/sounds/legit/left100.wav,,,,,9,34,349,34,,,,,,,,,,,,,,,left,0.318734884262,,,,,participant5,23,59.8726976591,F,trial,2017_May_26_1321,
,,,,,,,,,,,,,,,,,,,,,,,,,,,,,space,24.3377029896,,,participant5,23,59.8726976591,F,trial,2017_May_26_1321,
,,0.1,"[2.25, 0]",/sounds/legit/right35.wav,,,,,,,,,0,0,0,5,,,,,,,,,,,,,,,right,0.786478042603,participant5,23,59.8726976591,F,trial,2017_May_26_1321,
,,0.23,"[-6.75, 0]",/sounds/legit/left100.wav,,,,,,,,,0,1,1,31,,,,,,,,,,,,,,,left,0.185045957565,participant5,23,59.8726976591,F,trial,2017_May_26_1321,
,,0.23,"[4.5, 0]",/sounds/legit/right70.wav,,,,,,,,,0,2,2,11,,,,,,,,,,,,,,,right,0.302041053772,participant5,23,59.8726976591,F,trial,2017_May_26_1321,
,,0.62,"[2.25, 0]",/sounds/legit/right35.wav,,,,,,,,,0,3,3,9,,,,,,,,,,,,,,,right,0.36874294281,participant5,23,59.8726976591,F,trial,2017_May_26_1321,
,,0.62,"[4.5, 0]",/sounds/legit/right70.wav,,,,,,,,,0,4,4,14,,,,,,,,,,,,,,,right,0.218538045883,participant5,23,59.8726976591,F,trial,2017_May_26_1321,
,,0.49,"[-6.75, 0]",/sounds/legit/left100.wav,,,,,,,,,0,5,5,33,,,,,,,,,,,,,,,left,0.151755094528,participant5,23,59.8726976591,F,trial,2017_May_26_1321,
,,0.36,"[0, 0]",/sounds/legit/equal.wav,,,,,,,,,0,6,6,2,,,,,,,,,,,,,,,right,0.753062963486,participant5,23,59.8726976591,F,trial,2017_May_26_1321,
,,0.36,"[2.25, 0]",/sounds/legit/right35.wav,,,,,,,,,0,7,7,7,,,,,,,,,,,,,,,right,0.201913118362,participant5,23,59.8726976591,F,trial,2017_May_26_1321,
,,0.23,"[2.25, 0]",/sounds/legit/right35.wav,,,,,,,,,0,8,8,6,,,,,,,,,,,,,,,right,0.268653869629,participant5,23,59.8726976591,F,trial,2017_May_26_1321,
,,0.23,"[0, 0]",/sounds/legit/equal.wav,,,,,,,,,0,9,9,1,,,,,,,,,,,,,,,left,0.518870830536,participant5,23,59.8726976591,F,trial,2017_May_26_1321,
,,0.1,"[-6.75, 0]",/sounds/legit/left100.wav,,,,,,,,,0,10,10,30,,,,,,,,,,,,,,,left,0.284502029419,participant5,23,59.8726976591,F,trial,2017_May_26_1321,
,,0.49,"[-6.75, 0]",/sounds/legit/left100.wav,,,,,,,,,0,11,11,33,,,,,,,,,,,,,,,left,0.334614992142,participant5,23,59.8726976591,F,trial,2017_May_26_1321,
,,0.62,"[0, 0]",/sounds/legit/equal.wav,,,,,,,,,0,12,12,4,,,,,,,,,,,,,,,right,0.23542714119,participant5,23,59.8726976591,F,trial,2017_May_26_1321,
,,0.49,"[-2.25, 0]",/sounds/legit/left35.wav,,,,,,,,,0,13,13,23,,,,,,,,,,,,,,,right,0.435585021973,participant5,23,59.8726976591,F,trial,2017_May_26_1321,
,,0.62,"[-2.25, 0]",/sounds/legit/left35.wav,,,,,,,,,0,14,14,24,,,,,,,,,,,,,,,right,0.285305023193,participant5,23,59.8726976591,F,trial,2017_May_26_1321,
,,0.49,"[-4.5, 0]",/sounds/legit/left70.wav,,,,,,,,,0,15,15,28,,,,,,,,,,,,,,,left,0.402198076248,participant5,23,59.8726976591,F,trial,2017_May_26_1321,
,,0.49,"[-6.75, 0]",/sounds/legit/left100.wav,,,,,,,,,0,16,16,33,,,,,,,,,,,,,,,left,0.218378782272,participant5,23,59.8726976591,F,trial,2017_May_26_1321,
,,0.49,"[6.75, 0]",/sounds/legit/right100.wav,,,,,,,,,0,17,17,18,,,,,,,,,,,,,,,right,0.21845293045,participant5,23,59.8726976591,F,trial,2017_May_26_1321,
,,0.62,"[2.25, 0]",/sounds/legit/right35.wav,,,,,,,,,0,18,18,9,,,,,,,,,,,,,,,right,0.251844882965,participant5,23,59.8726976591,F,trial,2017_May_26_1321,
,,0.36,"[-4.5, 0]",/sounds/legit/left70.wav,,,,,,,,,0,19,19,27,,,,,,,,,,,,,,,left,0.50225019455,participant5,23,59.8726976591,F,trial,2017_May_26_1321,
,,0.62,"[-6.75, 0]",/sounds/legit/left100.wav,,,,,,,,,0,20,20,34,,,,,,,,,,,,,,,left,0.352291822433,participant5,23,59.8726976591,F,trial,2017_May_26_1321,
,,0.36,"[4.5, 0]",/sounds/legit/right70.wav,,,,,,,,,0,21,21,12,,,,,,,,,,,,,,,right,0.201956033707,participant5,23,59.8726976591,F,trial,2017_May_26_1321,
,,0.36,"[-6.75, 0]",/sounds/legit/left100.wav,,,,,,,,,0,22,22,32,,,,,,,,,,,,,,,left,0.669293880463,participant5,23,59.8726976591,F,trial,2017_May_26_1321,
,,0.23,"[0, 0]",/sounds/legit/equal.wav,,,,,,,,,0,23,23,1,,,,,,,,,,,,,,,right,0.285202026367,participant5,23,59.8726976591,F,trial,2017_May_26_1321,
,,0.36,"[-4.5, 0]",/sounds/legit/left70.wav,,,,,,,,,0,24,24,27,,,,,,,,,,,,,,,left,0.251879930496,participant5,23,59.8726976591,F,trial,2017_May_26_1321,
,,0.1,"[4.5, 0]",/sounds/legit/right70.wav,,,,,,,,,0,25,25,10,,,,,,,,,,,,,,,right,0.268328905106,participant5,23,59.8726976591,F,trial,2017_May_26_1321,
,,0.62,"[-4.5, 0]",/sounds/legit/left70.wav,,,,,,,,,0,26,26,29,,,,,,,,,,,,,,,left,0.936625957489,participant5,23,59.8726976591,F,trial,2017_May_26_1321,
,,0.49,"[-4.5, 0]",/sounds/legit/left70.wav,,,,,,,,,0,27,27,28,,,,,,,,,,,,,,,left,0.285295009613,participant5,23,59.8726976591,F,trial,2017_May_26_1321,
,,0.62,"[4.5, 0]",/sounds/legit/right70.wav,,,,,,,,,0,28,28,14,,,,,,,,,,,,,,,right,0.853014945984,participant5,23,59.8726976591,F,trial,2017_May_26_1321,
,,0.23,"[-2.25, 0]",/sounds/legit/left35.wav,,,,,,,,,0,29,29,21,,,,,,,,,,,,,,,left,0.252020120621,participant5,23,59.8726976591,F,trial,2017_May_26_1321,
,,0.62,"[6.75, 0]",/sounds/legit/right100.wav,,,,,,,,,0,30,30,19,,,,,,,,,,,,,,,right,0.151658058167,participant5,23,59.8726976591,F,trial,2017_May_26_1321,
,,0.49,"[4.5, 0]",/sounds/legit/right70.wav,,,,,,,,,0,31,31,13,,,,,,,,,,,,,,,right,0.218460798264,participant5,23,59.8726976591,F,trial,2017_May_26_1321,
,,0.49,"[0, 0]",/sounds/legit/equal.wav,,,,,,,,,0,32,32,3,,,,,,,,,,,,,,,right,0.619292020798,participant5,23,59.8726976591,F,trial,2017_May_26_1321,
,,0.62,"[2.25, 0]",/sounds/legit/right35.wav,,,,,,,,,0,33,33,9,,,,,,,,,,,,,,,right,0.251775979996,participant5,23,59.8726976591,F,trial,2017_May_26_1321,
,,0.23,"[-2.25, 0]",/sounds/legit/left35.wav,,,,,,,,,0,34,34,21,,,,,,,,,,,,,,,right,0.251829147339,participant5,23,59.8726976591,F,trial,2017_May_26_1321,
,,0.1,"[0, 0]",/sounds/legit/equal.wav,,,,,,,,,1,0,35,0,,,,,,,,,,,,,,,right,0.201982975006,participant5,23,59.8726976591,F,trial,2017_May_26_1321,
,,0.23,"[0, 0]",/sounds/legit/equal.wav,,,,,,,,,1,1,36,1,,,,,,,,,,,,,,,right,0.736497879028,participant5,23,59.8726976591,F,trial,2017_May_26_1321,
,,0.62,"[6.75, 0]",/sounds/legit/right100.wav,,,,,,,,,1,2,37,19,,,,,,,,,,,,,,,right,0.301789999008,participant5,23,59.8726976591,F,trial,2017_May_26_1321,
,,0.62,"[-6.75, 0]",/sounds/legit/left100.wav,,,,,,,,,1,3,38,34,,,,,,,,,,,,,,,left,0.886513948441,participant5,23,59.8726976591,F,trial,2017_May_26_1321,
,,0.49,"[2.25, 0]",/sounds/legit/right35.wav,,,,,,,,,1,4,39,8,,,,,,,,,,,,,,,right,0.218648910522,participant5,23,59.8726976591,F,trial,2017_May_26_1321,
,,0.1,"[-4.5, 0]",/sounds/legit/left70.wav,,,,,,,,,1,5,40,25,,,,,,,,,,,,,,,left,0.268653869629,participant5,23,59.8726976591,F,trial,2017_May_26_1321,
,,0.23,"[2.25, 0]",/sounds/legit/right35.wav,,,,,,,,,1,6,41,6,,,,,,,,,,,,,,,right,0.235049962997,participant5,23,59.8726976591,F,trial,2017_May_26_1321,
,,0.23,"[2.25, 0]",/sounds/legit/right35.wav,,,,,,,,,1,7,42,6,,,,,,,,,,,,,,,right,0.25214099884,participant5,23,59.8726976591,F,trial,2017_May_26_1321,
,,0.36,"[-6.75, 0]",/sounds/legit/left100.wav,,,,,,,,,1,8,43,32,,,,,,,,,,,,,,,left,0.218350887299,participant5,23,59.8726976591,F,trial,2017_May_26_1321,
,,0.62,"[0, 0]",/sounds/legit/equal.wav,,,,,,,,,1,9,44,4,,,,,,,,,,,,,,,right,0.185445070267,participant5,23,59.8726976591,F,trial,2017_May_26_1321,
,,0.36,"[-4.5, 0]",/sounds/legit/left70.wav,,,,,,,,,1,10,45,27,,,,,,,,,,,,,,,left,0.36871099472,participant5,23,59.8726976591,F,trial,2017_May_26_1321,
,,0.49,"[-4.5, 0]",/sounds/legit/left70.wav,,,,,,,,,1,11,46,28,,,,,,,,,,,,,,,left,0.318659067154,participant5,23,59.8726976591,F,trial,2017_May_26_1321,
,,0.1,"[4.5, 0]",/sounds/legit/right70.wav,,,,,,,,,1,12,47,10,,,,,,,,,,,,,,,right,0.652821063995,participant5,23,59.8726976591,F,trial,2017_May_26_1321,
,,0.1,"[-6.75, 0]",/sounds/legit/left100.wav,,,,,,,,,1,13,48,30,,,,,,,,,,,,,,,left,0.135046958923,participant5,23,59.8726976591,F,trial,2017_May_26_1321,
,,0.62,"[-6.75, 0]",/sounds/legit/left100.wav,,,,,,,,,1,14,49,34,,,,,,,,,,,,,,,left,0.302040100098,participant5,23,59.8726976591,F,trial,2017_May_26_1321,
,,0.23,"[4.5, 0]",/sounds/legit/right70.wav,,,,,,,,,1,15,50,11,,,,,,,,,,,,,,,right,0.21754693985,participant5,23,59.8726976591,F,trial,2017_May_26_1321,
,,0.23,"[4.5, 0]",/sounds/legit/right70.wav,,,,,,,,,1,16,51,11,,,,,,,,,,,,,,,right,0.00138783454895,participant5,23,59.8726976591,F,trial,2017_May_26_1321,
,,0.62,"[-4.5, 0]",/sounds/legit/left70.wav,,,,,,,,,1,17,52,29,,,,,,,,,,,,,,,left,0.585836172104,participant5,23,59.8726976591,F,trial,2017_May_26_1321,
,,0.49,"[6.75, 0]",/sounds/legit/right100.wav,,,,,,,,,1,18,53,18,,,,,,,,,,,,,,,right,0.268524885178,participant5,23,59.8726976591,F,trial,2017_May_26_1321,
,,0.23,"[-4.5, 0]",/sounds/legit/left70.wav,,,,,,,,,1,19,54,26,,,,,,,,,,,,,,,left,0.302150011063,participant5,23,59.8726976591,F,trial,2017_May_26_1321,
,,0.36,"[-2.25, 0]",/sounds/legit/left35.wav,,,,,,,,,1,20,55,22,,,,,,,,,,,,,,,left,0.419048070908,participant5,23,59.8726976591,F,trial,2017_May_26_1321,
,,0.62,"[-2.25, 0]",/sounds/legit/left35.wav,,,,,,,,,1,21,56,24,,,,,,,,,,,,,,,left,0.569149971008,participant5,23,59.8726976591,F,trial,2017_May_26_1321,
,,0.36,"[-4.5, 0]",/sounds/legit/left70.wav,,,,,,,,,1,22,57,27,,,,,,,,,,,,,,,left,0.502485990524,participant5,23,59.8726976591,F,trial,2017_May_26_1321,
,,0.49,"[0, 0]",/sounds/legit/equal.wav,,,,,,,,,1,23,58,3,,,,,,,,,,,,,,,right,0.151688814163,participant5,23,59.8726976591,F,trial,2017_May_26_1321,
,,0.49,"[2.25, 0]",/sounds/legit/right35.wav,,,,,,,,,1,24,59,8,,,,,,,,,,,,,,,right,0.184154987335,participant5,23,59.8726976591,F,trial,2017_May_26_1321,
,,0.62,"[0, 0]",/sounds/legit/equal.wav,,,,,,,,,1,25,60,4,,,,,,,,,,,,,,,right,0.184937000275,participant5,23,59.8726976591,F,trial,2017_May_26_1321,
,,0.23,"[4.5, 0]",/sounds/legit/right70.wav,,,,,,,,,1,26,61,11,,,,,,,,,,,,,,,right,0.235228061676,participant5,23,59.8726976591,F,trial,2017_May_26_1321,
,,0.62,"[-6.75, 0]",/sounds/legit/left100.wav,,,,,,,,,1,27,62,34,,,,,,,,,,,,,,,left,0.636084079742,participant5,23,59.8726976591,F,trial,2017_May_26_1321,
,,0.49,"[4.5, 0]",/sounds/legit/right70.wav,,,,,,,,,1,28,63,13,,,,,,,,,,,,,,,right,0.519193887711,participant5,23,59.8726976591,F,trial,2017_May_26_1321,
,,0.23,"[-2.25, 0]",/sounds/legit/left35.wav,,,,,,,,,1,29,64,21,,,,,,,,,,,,,,,left,0.251795053482,participant5,23,59.8726976591,F,trial,2017_May_26_1321,
,,0.36,"[2.25, 0]",/sounds/legit/right35.wav,,,,,,,,,1,30,65,7,,,,,,,,,,,,,,,right,0.268675088882,participant5,23,59.8726976591,F,trial,2017_May_26_1321,
,,0.23,"[6.75, 0]",/sounds/legit/right100.wav,,,,,,,,,1,31,66,16,,,,,,,,,,,,,,,right,0.251705884933,participant5,23,59.8726976591,F,trial,2017_May_26_1321,
,,0.23,"[4.5, 0]",/sounds/legit/right70.wav,,,,,,,,,1,32,67,11,,,,,,,,,,,,,,,right,0.285474777222,participant5,23,59.8726976591,F,trial,2017_May_26_1321,
,,0.49,"[-2.25, 0]",/sounds/legit/left35.wav,,,,,,,,,1,33,68,23,,,,,,,,,,,,,,,left,0.251795053482,participant5,23,59.8726976591,F,trial,2017_May_26_1321,
,,0.49,"[0, 0]",/sounds/legit/equal.wav,,,,,,,,,1,34,69,3,,,,,,,,,,,,,,,left,0.368891000748,participant5,23,59.8726976591,F,trial,2017_May_26_1321,
,,0.62,"[-6.75, 0]",/sounds/legit/left100.wav,,,,,,,,,2,0,70,34,,,,,,,,,,,,,,,left,0.318881988525,participant5,23,59.8726976591,F,trial,2017_May_26_1321,
,,0.1,"[6.75, 0]",/sounds/legit/right100.wav,,,,,,,,,2,1,71,15,,,,,,,,,,,,,,,right,0.268512010574,participant5,23,59.8726976591,F,trial,2017_May_26_1321,
,,0.1,"[-6.75, 0]",/sounds/legit/left100.wav,,,,,,,,,2,2,72,30,,,,,,,,,,,,,,,left,0.318614959717,participant5,23,59.8726976591,F,trial,2017_May_26_1321,
,,0.23,"[-4.5, 0]",/sounds/legit/left70.wav,,,,,,,,,2,3,73,26,,,,,,,,,,,,,,,left,0.26872587204,participant5,23,59.8726976591,F,trial,2017_May_26_1321,
,,0.49,"[0, 0]",/sounds/legit/equal.wav,,,,,,,,,2,4,74,3,,,,,,,,,,,,,,,right,0.251837968826,participant5,23,59.8726976591,F,trial,2017_May_26_1321,
,,0.36,"[-2.25, 0]",/sounds/legit/left35.wav,,,,,,,,,2,5,75,22,,,,,,,,,,,,,,,left,0.251770019531,participant5,23,59.8726976591,F,trial,2017_May_26_1321,
,,0.36,"[6.75, 0]",/sounds/legit/right100.wav,,,,,,,,,2,6,76,17,,,,,,,,,,,,,,,right,0.235256910324,participant5,23,59.8726976591,F,trial,2017_May_26_1321,
,,0.1,"[-6.75, 0]",/sounds/legit/left100.wav,,,,,,,,,2,7,77,30,,,,,,,,,,,,,,,left,0.2685110569,participant5,23,59.8726976591,F,trial,2017_May_26_1321,
,,0.62,"[2.25, 0]",/sounds/legit/right35.wav,,,,,,,,,2,8,78,9,,,,,,,,,,,,,,,right,0.235358953476,participant5,23,59.8726976591,F,trial,2017_May_26_1321,
,,0.62,"[0, 0]",/sounds/legit/equal.wav,,,,,,,,,2,9,79,4,,,,,,,,,,,,,,,right,0.235100984573,participant5,23,59.8726976591,F,trial,2017_May_26_1321,
,,0.23,"[-6.75, 0]",/sounds/legit/left100.wav,,,,,,,,,2,10,80,31,,,,,,,,,,,,,,,left,0.151487112045,participant5,23,59.8726976591,F,trial,2017_May_26_1321,
,,0.62,"[4.5, 0]",/sounds/legit/right70.wav,,,,,,,,,2,11,81,14,,,,,,,,,,,,,,,right,0.201696872711,participant5,23,59.8726976591,F,trial,2017_May_26_1321,
,,0.1,"[0, 0]",/sounds/legit/equal.wav,,,,,,,,,2,12,82,0,,,,,,,,,,,,,,,right,0.151681184769,participant5,23,59.8726976591,F,trial,2017_May_26_1321,
,,0.62,"[2.25, 0]",/sounds/legit/right35.wav,,,,,,,,,2,13,83,9,,,,,,,,,,,,,,,right,0.836261034012,participant5,23,59.8726976591,F,trial,2017_May_26_1321,
,,0.1,"[-2.25, 0]",/sounds/legit/left35.wav,,,,,,,,,2,14,84,20,,,,,,,,,,,,,,,left,0.78629899025,participant5,23,59.8726976591,F,trial,2017_May_26_1321,
,,0.23,"[-4.5, 0]",/sounds/legit/left70.wav,,,,,,,,,2,15,85,26,,,,,,,,,,,,,,,left,0.168359041214,participant5,23,59.8726976591,F,trial,2017_May_26_1321,
,,0.49,"[-2.25, 0]",/sounds/legit/left35.wav,,,,,,,,,2,16,86,23,,,,,,,,,,,,,,,left,0.268568992615,participant5,23,59.8726976591,F,trial,2017_May_26_1321,
,,0.1,"[4.5, 0]",/sounds/legit/right70.wav,,,,,,,,,2,17,87,10,,,,,,,,,,,,,,,right,0.468904018402,participant5,23,59.8726976591,F,trial,2017_May_26_1321,
,,0.23,"[6.75, 0]",/sounds/legit/right100.wav,,,,,,,,,2,18,88,16,,,,,,,,,,,,,,,right,0.402225017548,participant5,23,59.8726976591,F,trial,2017_May_26_1321,
,,0.23,"[6.75, 0]",/sounds/legit/right100.wav,,,,,,,,,2,19,89,16,,,,,,,,,,,,,,,right,0.352074146271,participant5,23,59.8726976591,F,trial,2017_May_26_1321,
,,0.23,"[6.75, 0]",/sounds/legit/right100.wav,,,,,,,,,2,20,90,16,,,,,,,,,,,,,,,right,0.25194811821,participant5,23,59.8726976591,F,trial,2017_May_26_1321,
,,0.1,"[6.75, 0]",/sounds/legit/right100.wav,,,,,,,,,2,21,91,15,,,,,,,,,,,,,,,right,0.284409046173,participant5,23,59.8726976591,F,trial,2017_May_26_1321,
,,0.23,"[-6.75, 0]",/sounds/legit/left100.wav,,,,,,,,,2,22,92,31,,,,,,,,,,,,,,,left,0.285270929337,participant5,23,59.8726976591,F,trial,2017_May_26_1321,
,,0.49,"[-6.75, 0]",/sounds/legit/left100.wav,,,,,,,,,2,23,93,33,,,,,,,,,,,,,,,left,0.268357992172,participant5,23,59.8726976591,F,trial,2017_May_26_1321,
,,0.36,"[-2.25, 0]",/sounds/legit/left35.wav,,,,,,,,,2,24,94,22,,,,,,,,,,,,,,,left,0.251576900482,participant5,23,59.8726976591,F,trial,2017_May_26_1321,
,,0.23,"[0, 0]",/sounds/legit/equal.wav,,,,,,,,,2,25,95,1,,,,,,,,,,,,,,,right,0.301978111267,participant5,23,59.8726976591,F,trial,2017_May_26_1321,
,,0.36,"[-6.75, 0]",/sounds/legit/left100.wav,,,,,,,,,2,26,96,32,,,,,,,,,,,,,,,left,0.251914978027,participant5,23,59.8726976591,F,trial,2017_May_26_1321,
,,0.1,"[-2.25, 0]",/sounds/legit/left35.wav,,,,,,,,,2,27,97,20,,,,,,,,,,,,,,,right,0.736361980438,participant5,23,59.8726976591,F,trial,2017_May_26_1321,
,,0.36,"[0, 0]",/sounds/legit/equal.wav,,,,,,,,,2,28,98,2,,,,,,,,,,,,,,,right,0.251618146896,participant5,23,59.8726976591,F,trial,2017_May_26_1321,
,,0.23,"[0, 0]",/sounds/legit/equal.wav,,,,,,,,,2,29,99,1,,,,,,,,,,,,,,,right,0.235064029694,participant5,23,59.8726976591,F,trial,2017_May_26_1321,
,,0.62,"[-4.5, 0]",/sounds/legit/left70.wav,,,,,,,,,2,30,100,29,,,,,,,,,,,,,,,left,0.452311038971,participant5,23,59.8726976591,F,trial,2017_May_26_1321,
,,0.62,"[-2.25, 0]",/sounds/legit/left35.wav,,,,,,,,,2,31,101,24,,,,,,,,,,,,,,,left,0.502423048019,participant5,23,59.8726976591,F,trial,2017_May_26_1321,
,,0.62,"[2.25, 0]",/sounds/legit/right35.wav,,,,,,,,,2,32,102,9,,,,,,,,,,,,,,,right,0.168615102768,participant5,23,59.8726976591,F,trial,2017_May_26_1321,
,,0.49,"[4.5, 0]",/sounds/legit/right70.wav,,,,,,,,,2,33,103,13,,,,,,,,,,,,,,,right,0.25174498558,participant5,23,59.8726976591,F,trial,2017_May_26_1321,
,,0.23,"[4.5, 0]",/sounds/legit/right70.wav,,,,,,,,,2,34,104,11,,,,,,,,,,,,,,,right,0.185140132904,participant5,23,59.8726976591,F,trial,2017_May_26_1321,
,,0.1,"[-2.25, 0]",/sounds/legit/left35.wav,,,,,,,,,3,0,105,20,,,,,,,,,,,,,,,left,0.218543767929,participant5,23,59.8726976591,F,trial,2017_May_26_1321,
,,0.36,"[6.75, 0]",/sounds/legit/right100.wav,,,,,,,,,3,1,106,17,,,,,,,,,,,,,,,right,0.318792819977,participant5,23,59.8726976591,F,trial,2017_May_26_1321,
,,0.62,"[0, 0]",/sounds/legit/equal.wav,,,,,,,,,3,2,107,4,,,,,,,,,,,,,,,right,0.25070309639,participant5,23,59.8726976591,F,trial,2017_May_26_1321,
,,0.36,"[-4.5, 0]",/sounds/legit/left70.wav,,,,,,,,,3,3,108,27,,,,,,,,,,,,,,,left,0.185209989548,participant5,23,59.8726976591,F,trial,2017_May_26_1321,
,,0.36,"[0, 0]",/sounds/legit/equal.wav,,,,,,,,,3,4,109,2,,,,,,,,,,,,,,,right,0.235316038132,participant5,23,59.8726976591,F,trial,2017_May_26_1321,
,,0.62,"[2.25, 0]",/sounds/legit/right35.wav,,,,,,,,,3,5,110,9,,,,,,,,,,,,,,,right,0.301859855652,participant5,23,59.8726976591,F,trial,2017_May_26_1321,
,,0.62,"[6.75, 0]",/sounds/legit/right100.wav,,,,,,,,,3,6,111,19,,,,,,,,,,,,,,,right,0.218563079834,participant5,23,59.8726976591,F,trial,2017_May_26_1321,
,,0.49,"[4.5, 0]",/sounds/legit/right70.wav,,,,,,,,,3,7,112,13,,,,,,,,,,,,,,,right,0.134938001633,participant5,23,59.8726976591,F,trial,2017_May_26_1321,
,,0.1,"[6.75, 0]",/sounds/legit/right100.wav,,,,,,,,,3,8,113,15,,,,,,,,,,,,,,,right,0.285237073898,participant5,23,59.8726976591,F,trial,2017_May_26_1321,
,,0.49,"[4.5, 0]",/sounds/legit/right70.wav,,,,,,,,,3,9,114,13,,,,,,,,,,,,,,,right,0.552396059036,participant5,23,59.8726976591,F,trial,2017_May_26_1321,
,,0.49,"[4.5, 0]",/sounds/legit/right70.wav,,,,,,,,,3,10,115,13,,,,,,,,,,,,,,,right,0.301913022995,participant5,23,59.8726976591,F,trial,2017_May_26_1321,
,,0.23,"[4.5, 0]",/sounds/legit/right70.wav,,,,,,,,,3,11,116,11,,,,,,,,,,,,,,,right,0.28519487381,participant5,23,59.8726976591,F,trial,2017_May_26_1321,
,,0.23,"[-6.75, 0]",/sounds/legit/left100.wav,,,,,,,,,3,12,117,31,,,,,,,,,,,,,,,left,0.285466909409,participant5,23,59.8726976591,F,trial,2017_May_26_1321,
,,0.23,"[-4.5, 0]",/sounds/legit/left70.wav,,,,,,,,,3,13,118,26,,,,,,,,,,,,,,,left,0.218445062637,participant5,23,59.8726976591,F,trial,2017_May_26_1321,
,,0.1,"[2.25, 0]",/sounds/legit/right35.wav,,,,,,,,,3,14,119,5,,,,,,,,,,,,,,,right,0.251760005951,participant5,23,59.8726976591,F,trial,2017_May_26_1321,
,,0.1,"[-4.5, 0]",/sounds/legit/left70.wav,,,,,,,,,3,15,120,25,,,,,,,,,,,,,,,left,0.100603103638,participant5,23,59.8726976591,F,trial,2017_May_26_1321,
,,0.36,"[-2.25, 0]",/sounds/legit/left35.wav,,,,,,,,,3,16,121,22,,,,,,,,,,,,,,,left,0.118470191956,participant5,23,59.8726976591,F,trial,2017_May_26_1321,
,,0.36,"[6.75, 0]",/sounds/legit/right100.wav,,,,,,,,,3,17,122,17,,,,,,,,,,,,,,,right,0.101375102997,participant5,23,59.8726976591,F,trial,2017_May_26_1321,
,,0.1,"[-6.75, 0]",/sounds/legit/left100.wav,,,,,,,,,3,18,123,30,,,,,,,,,,,,,,,left,0.1848320961,participant5,23,59.8726976591,F,trial,2017_May_26_1321,
,,0.49,"[0, 0]",/sounds/legit/equal.wav,,,,,,,,,3,19,124,3,,,,,,,,,,,,,,,right,0.26858997345,participant5,23,59.8726976591,F,trial,2017_May_26_1321,
,,0.36,"[0, 0]",/sounds/legit/equal.wav,,,,,,,,,3,20,125,2,,,,,,,,,,,,,,,right,0.234488010406,participant5,23,59.8726976591,F,trial,2017_May_26_1321,
,,0.49,"[-6.75, 0]",/sounds/legit/left100.wav,,,,,,,,,3,21,126,33,,,,,,,,,,,,,,,left,0.218605041504,participant5,23,59.8726976591,F,trial,2017_May_26_1321,
,,0.62,"[-2.25, 0]",/sounds/legit/left35.wav,,,,,,,,,3,22,127,24,,,,,,,,,,,,,,,left,0.252006053925,participant5,23,59.8726976591,F,trial,2017_May_26_1321,
,,0.36,"[0, 0]",/sounds/legit/equal.wav,,,,,,,,,3,23,128,2,,,,,,,,,,,,,,,right,0.251671075821,participant5,23,59.8726976591,F,trial,2017_May_26_1321,
,,0.23,"[0, 0]",/sounds/legit/equal.wav,,,,,,,,,3,24,129,1,,,,,,,,,,,,,,,right,0.218770980835,participant5,23,59.8726976591,F,trial,2017_May_26_1321,
,,0.1,"[4.5, 0]",/sounds/legit/right70.wav,,,,,,,,,3,25,130,10,,,,,,,,,,,,,,,right,0.235190153122,participant5,23,59.8726976591,F,trial,2017_May_26_1321,
,,0.36,"[2.25, 0]",/sounds/legit/right35.wav,,,,,,,,,3,26,131,7,,,,,,,,,,,,,,,right,0.234365940094,participant5,23,59.8726976591,F,trial,2017_May_26_1321,
,,0.36,"[4.5, 0]",/sounds/legit/right70.wav,,,,,,,,,3,27,132,12,,,,,,,,,,,,,,,right,0.235100984573,participant5,23,59.8726976591,F,trial,2017_May_26_1321,
,,0.62,"[-4.5, 0]",/sounds/legit/left70.wav,,,,,,,,,3,28,133,29,,,,,,,,,,,,,,,left,0.268505096436,participant5,23,59.8726976591,F,trial,2017_May_26_1321,
,,0.62,"[-2.25, 0]",/sounds/legit/left35.wav,,,,,,,,,3,29,134,24,,,,,,,,,,,,,,,left,0.30214214325,participant5,23,59.8726976591,F,trial,2017_May_26_1321,
,,0.1,"[6.75, 0]",/sounds/legit/right100.wav,,,,,,,,,3,30,135,15,,,,,,,,,,,,,,,left,0.468955993652,participant5,23,59.8726976591,F,trial,2017_May_26_1321,
,,0.23,"[-2.25, 0]",/sounds/legit/left35.wav,,,,,,,,,3,31,136,21,,,,,,,,,,,,,,,right,0.452181816101,participant5,23,59.8726976591,F,trial,2017_May_26_1321,
,,0.1,"[0, 0]",/sounds/legit/equal.wav,,,,,,,,,3,32,137,0,,,,,,,,,,,,,,,right,0.151537895203,participant5,23,59.8726976591,F,trial,2017_May_26_1321,
,,0.36,"[-4.5, 0]",/sounds/legit/left70.wav,,,,,,,,,3,33,138,27,,,,,,,,,,,,,,,left,0.201576948166,participant5,23,59.8726976591,F,trial,2017_May_26_1321,
,,0.62,"[-4.5, 0]",/sounds/legit/left70.wav,,,,,,,,,3,34,139,29,,,,,,,,,,,,,,,left,0.168256044388,participant5,23,59.8726976591,F,trial,2017_May_26_1321,
,,0.23,"[6.75, 0]",/sounds/legit/right100.wav,,,,,,,,,4,0,140,16,,,,,,,,,,,,,,,right,0.16831111908,participant5,23,59.8726976591,F,trial,2017_May_26_1321,
,,0.23,"[-4.5, 0]",/sounds/legit/left70.wav,,,,,,,,,4,1,141,26,,,,,,,,,,,,,,,left,0.33425116539,participant5,23,59.8726976591,F,trial,2017_May_26_1321,
,,0.36,"[6.75, 0]",/sounds/legit/right100.wav,,,,,,,,,4,2,142,17,,,,,,,,,,,,,,,right,0.235430002213,participant5,23,59.8726976591,F,trial,2017_May_26_1321,
,,0.49,"[2.25, 0]",/sounds/legit/right35.wav,,,,,,,,,4,3,143,8,,,,,,,,,,,,,,,right,0.218332052231,participant5,23,59.8726976591,F,trial,2017_May_26_1321,
,,0.36,"[0, 0]",/sounds/legit/equal.wav,,,,,,,,,4,4,144,2,,,,,,,,,,,,,,,right,0.235378980637,participant5,23,59.8726976591,F,trial,2017_May_26_1321,
,,0.62,"[2.25, 0]",/sounds/legit/right35.wav,,,,,,,,,4,5,145,9,,,,,,,,,,,,,,,right,0.201847076416,participant5,23,59.8726976591,F,trial,2017_May_26_1321,
,,0.1,"[-2.25, 0]",/sounds/legit/left35.wav,,,,,,,,,4,6,146,20,,,,,,,,,,,,,,,right,0.352270841599,participant5,23,59.8726976591,F,trial,2017_May_26_1321,
,,0.49,"[-2.25, 0]",/sounds/legit/left35.wav,,,,,,,,,4,7,147,23,,,,,,,,,,,,,,,right,0.218338012695,participant5,23,59.8726976591,F,trial,2017_May_26_1321,
,,0.49,"[6.75, 0]",/sounds/legit/right100.wav,,,,,,,,,4,8,148,18,,,,,,,,,,,,,,,right,1.0035161972,participant5,23,59.8726976591,F,trial,2017_May_26_1321,
,,0.23,"[4.5, 0]",/sounds/legit/right70.wav,,,,,,,,,4,9,149,11,,,,,,,,,,,,,,,right,0.185312986374,participant5,23,59.8726976591,F,trial,2017_May_26_1321,
,,0.36,"[0, 0]",/sounds/legit/equal.wav,,,,,,,,,4,10,150,2,,,,,,,,,,,,,,,right,0.185021162033,participant5,23,59.8726976591,F,trial,2017_May_26_1321,
,,0.62,"[0, 0]",/sounds/legit/equal.wav,,,,,,,,,4,11,151,4,,,,,,,,,,,,,,,right,0.285422801971,participant5,23,59.8726976591,F,trial,2017_May_26_1321,
,,0.1,"[6.75, 0]",/sounds/legit/right100.wav,,,,,,,,,4,12,152,15,,,,,,,,,,,,,,,right,0.184956073761,participant5,23,59.8726976591,F,trial,2017_May_26_1321,
,,0.49,"[-2.25, 0]",/sounds/legit/left35.wav,,,,,,,,,4,13,153,23,,,,,,,,,,,,,,,left,0.218411922455,participant5,23,59.8726976591,F,trial,2017_May_26_1321,
,,0.36,"[-6.75, 0]",/sounds/legit/left100.wav,,,,,,,,,4,14,154,32,,,,,,,,,,,,,,,left,0.151443004608,participant5,23,59.8726976591,F,trial,2017_May_26_1321,
,,0.62,"[4.5, 0]",/sounds/legit/right70.wav,,,,,,,,,4,15,155,14,,,,,,,,,,,,,,,right,0.0345101356506,participant5,23,59.8726976591,F,trial,2017_May_26_1321,
,,0.62,"[6.75, 0]",/sounds/legit/right100.wav,,,,,,,,,4,16,156,19,,,,,,,,,,,,,,,right,0.251951932907,participant5,23,59.8726976591,F,trial,2017_May_26_1321,
,,0.36,"[4.5, 0]",/sounds/legit/right70.wav,,,,,,,,,4,17,157,12,,,,,,,,,,,,,,,right,0.268577098846,participant5,23,59.8726976591,F,trial,2017_May_26_1321,
,,0.36,"[2.25, 0]",/sounds/legit/right35.wav,,,,,,,,,4,18,158,7,,,,,,,,,,,,,,,right,0.36891913414,participant5,23,59.8726976591,F,trial,2017_May_26_1321,
,,0.36,"[4.5, 0]",/sounds/legit/right70.wav,,,,,,,,,4,19,159,12,,,,,,,,,,,,,,,right,0.33536696434,participant5,23,59.8726976591,F,trial,2017_May_26_1321,
,,0.49,"[0, 0]",/sounds/legit/equal.wav,,,,,,,,,4,20,160,3,,,,,,,,,,,,,,,right,0.234997034073,participant5,23,59.8726976591,F,trial,2017_May_26_1321,
,,0.62,"[-4.5, 0]",/sounds/legit/left70.wav,,,,,,,,,4,21,161,29,,,,,,,,,,,,,,,right,0.669509887695,participant5,23,59.8726976591,F,trial,2017_May_26_1321,
,,0.23,"[2.25, 0]",/sounds/legit/right35.wav,,,,,,,,,4,22,162,6,,,,,,,,,,,,,,,right,0.301864862442,participant5,23,59.8726976591,F,trial,2017_May_26_1321,
,,0.62,"[-2.25, 0]",/sounds/legit/left35.wav,,,,,,,,,4,23,163,24,,,,,,,,,,,,,,,left,0.419049978256,participant5,23,59.8726976591,F,trial,2017_May_26_1321,
,,0.62,"[0, 0]",/sounds/legit/equal.wav,,,,,,,,,4,24,164,4,,,,,,,,,,,,,,,right,0.235217094421,participant5,23,59.8726976591,F,trial,2017_May_26_1321,
,,0.62,"[-2.25, 0]",/sounds/legit/left35.wav,,,,,,,,,4,25,165,24,,,,,,,,,,,,,,,left,0.218540906906,participant5,23,59.8726976591,F,trial,2017_May_26_1321,
,,0.62,"[-4.5, 0]",/sounds/legit/left70.wav,,,,,,,,,4,26,166,29,,,,,,,,,,,,,,,left,0.184804916382,participant5,23,59.8726976591,F,trial,2017_May_26_1321,
,,0.36,"[4.5, 0]",/sounds/legit/right70.wav,,,,,,,,,4,27,167,12,,,,,,,,,,,,,,,right,0.168401956558,participant5,23,59.8726976591,F,trial,2017_May_26_1321,
,,0.36,"[0, 0]",/sounds/legit/equal.wav,,,,,,,,,4,28,168,2,,,,,,,,,,,,,,,right,0.201943874359,participant5,23,59.8726976591,F,trial,2017_May_26_1321,
,,0.49,"[4.5, 0]",/sounds/legit/right70.wav,,,,,,,,,4,29,169,13,,,,,,,,,,,,,,,right,0.0847260951996,participant5,23,59.8726976591,F,trial,2017_May_26_1321,
,,0.49,"[-4.5, 0]",/sounds/legit/left70.wav,,,,,,,,,4,30,170,28,,,,,,,,,,,,,,,left,0.268507003784,participant5,23,59.8726976591,F,trial,2017_May_26_1321,
,,0.49,"[-6.75, 0]",/sounds/legit/left100.wav,,,,,,,,,4,31,171,33,,,,,,,,,,,,,,,left,0.335211992264,participant5,23,59.8726976591,F,trial,2017_May_26_1321,
,,0.36,"[4.5, 0]",/sounds/legit/right70.wav,,,,,,,,,4,32,172,12,,,,,,,,,,,,,,,right,0.252054929733,participant5,23,59.8726976591,F,trial,2017_May_26_1321,
,,0.62,"[-4.5, 0]",/sounds/legit/left70.wav,,,,,,,,,4,33,173,29,,,,,,,,,,,,,,,left,0.418675899506,participant5,23,59.8726976591,F,trial,2017_May_26_1321,
,,0.1,"[-4.5, 0]",/sounds/legit/left70.wav,,,,,,,,,4,34,174,25,,,,,,,,,,,,,,,left,0.168329000473,participant5,23,59.8726976591,F,trial,2017_May_26_1321,
,,0.23,"[4.5, 0]",/sounds/legit/right70.wav,,,,,,,,,5,0,175,11,,,,,,,,,,,,,,,right,0.201706886292,participant5,23,59.8726976591,F,trial,2017_May_26_1321,
,,0.1,"[6.75, 0]",/sounds/legit/right100.wav,,,,,,,,,5,1,176,15,,,,,,,,,,,,,,,right,0.235106945038,participant5,23,59.8726976591,F,trial,2017_May_26_1321,
,,0.23,"[-6.75, 0]",/sounds/legit/left100.wav,,,,,,,,,5,2,177,31,,,,,,,,,,,,,,,left,0.168282032013,participant5,23,59.8726976591,F,trial,2017_May_26_1321,
,,0.49,"[-6.75, 0]",/sounds/legit/left100.wav,,,,,,,,,5,3,178,33,,,,,,,,,,,,,,,left,0.251538038254,participant5,23,59.8726976591,F,trial,2017_May_26_1321,
,,0.49,"[4.5, 0]",/sounds/legit/right70.wav,,,,,,,,,5,4,179,13,,,,,,,,,,,,,,,right,0.168326854706,participant5,23,59.8726976591,F,trial,2017_May_26_1321,
,,0.1,"[4.5, 0]",/sounds/legit/right70.wav,,,,,,,,,5,5,180,10,,,,,,,,,,,,,,,right,0.301640033722,participant5,23,59.8726976591,F,trial,2017_May_26_1321,
,,0.36,"[2.25, 0]",/sounds/legit/right35.wav,,,,,,,,,5,6,181,7,,,,,,,,,,,,,,,right,0.385417938232,participant5,23,59.8726976591,F,trial,2017_May_26_1321,
,,0.36,"[4.5, 0]",/sounds/legit/right70.wav,,,,,,,,,5,7,182,12,,,,,,,,,,,,,,,right,0.25167298317,participant5,23,59.8726976591,F,trial,2017_May_26_1321,
,,0.23,"[6.75, 0]",/sounds/legit/right100.wav,,,,,,,,,5,8,183,16,,,,,,,,,,,,,,,right,0.251561880112,participant5,23,59.8726976591,F,trial,2017_May_26_1321,
,,0.49,"[-4.5, 0]",/sounds/legit/left70.wav,,,,,,,,,5,9,184,28,,,,,,,,,,,,,,,right,0.352213859558,participant5,23,59.8726976591,F,trial,2017_May_26_1321,
,,0.49,"[6.75, 0]",/sounds/legit/right100.wav,,,,,,,,,5,10,185,18,,,,,,,,,,,,,,,right,0.201951980591,participant5,23,59.8726976591,F,trial,2017_May_26_1321,
,,0.49,"[2.25, 0]",/sounds/legit/right35.wav,,,,,,,,,5,11,186,8,,,,,,,,,,,,,,,left,0.21870303154,participant5,23,59.8726976591,F,trial,2017_May_26_1321,
,,0.36,"[-6.75, 0]",/sounds/legit/left100.wav,,,,,,,,,5,12,187,32,,,,,,,,,,,,,,,left,0.235194921494,participant5,23,59.8726976591,F,trial,2017_May_26_1321,
,,0.36,"[6.75, 0]",/sounds/legit/right100.wav,,,,,,,,,5,13,188,17,,,,,,,,,,,,,,,right,0.25187587738,participant5,23,59.8726976591,F,trial,2017_May_26_1321,
,,0.1,"[-4.5, 0]",/sounds/legit/left70.wav,,,,,,,,,5,14,189,25,,,,,,,,,,,,,,,left,0.185054063797,participant5,23,59.8726976591,F,trial,2017_May_26_1321,
,,0.36,"[-2.25, 0]",/sounds/legit/left35.wav,,,,,,,,,5,15,190,22,,,,,,,,,,,,,,,left,0.0849170684814,participant5,23,59.8726976591,F,trial,2017_May_26_1321,
,,0.49,"[0, 0]",/sounds/legit/equal.wav,,,,,,,,,5,16,191,3,,,,,,,,,,,,,,,right,0.418997049332,participant5,23,59.8726976591,F,trial,2017_May_26_1321,
,,0.49,"[2.25, 0]",/sounds/legit/right35.wav,,,,,,,,,5,17,192,8,,,,,,,,,,,,,,,right,0.302196025848,participant5,23,59.8726976591,F,trial,2017_May_26_1321,
,,0.36,"[6.75, 0]",/sounds/legit/right100.wav,,,,,,,,,5,18,193,17,,,,,,,,,,,,,,,right,0.218450069427,participant5,23,59.8726976591,F,trial,2017_May_26_1321,
,,0.62,"[-6.75, 0]",/sounds/legit/left100.wav,,,,,,,,,5,19,194,34,,,,,,,,,,,,,,,left,0.301997184753,participant5,23,59.8726976591,F,trial,2017_May_26_1321,
,,0.36,"[-2.25, 0]",/sounds/legit/left35.wav,,,,,,,,,5,20,195,22,,,,,,,,,,,,,,,right,0.368878126144,participant5,23,59.8726976591,F,trial,2017_May_26_1321,
,,0.1,"[4.5, 0]",/sounds/legit/right70.wav,,,,,,,,,5,21,196,10,,,,,,,,,,,,,,,right,0.251855134964,participant5,23,59.8726976591,F,trial,2017_May_26_1321,
,,0.62,"[6.75, 0]",/sounds/legit/right100.wav,,,,,,,,,5,22,197,19,,,,,,,,,,,,,,,right,0.201704978943,participant5,23,59.8726976591,F,trial,2017_May_26_1321,
,,0.62,"[6.75, 0]",/sounds/legit/right100.wav,,,,,,,,,5,23,198,19,,,,,,,,,,,,,,,right,0.402237892151,participant5,23,59.8726976591,F,trial,2017_May_26_1321,
,,0.36,"[0, 0]",/sounds/legit/equal.wav,,,,,,,,,5,24,199,2,,,,,,,,,,,,,,,right,0.118175029755,participant5,23,59.8726976591,F,trial,2017_May_26_1321,
,,0.62,"[-2.25, 0]",/sounds/legit/left35.wav,,,,,,,,,5,25,200,24,,,,,,,,,,,,,,,left,0.235114812851,participant5,23,59.8726976591,F,trial,2017_May_26_1321,
,,0.23,"[-4.5, 0]",/sounds/legit/left70.wav,,,,,,,,,5,26,201,26,,,,,,,,,,,,,,,left,0.25203704834,participant5,23,59.8726976591,F,trial,2017_May_26_1321,
,,0.62,"[-6.75, 0]",/sounds/legit/left100.wav,,,,,,,,,5,27,202,34,,,,,,,,,,,,,,,left,0.135283946991,participant5,23,59.8726976591,F,trial,2017_May_26_1321,
,,0.62,"[-4.5, 0]",/sounds/legit/left70.wav,,,,,,,,,5,28,203,29,,,,,,,,,,,,,,,left,0.151899814606,participant5,23,59.8726976591,F,trial,2017_May_26_1321,
,,0.1,"[2.25, 0]",/sounds/legit/right35.wav,,,,,,,,,5,29,204,5,,,,,,,,,,,,,,,right,0.135074138641,participant5,23,59.8726976591,F,trial,2017_May_26_1321,
,,0.62,"[2.25, 0]",/sounds/legit/right35.wav,,,,,,,,,5,30,205,9,,,,,,,,,,,,,,,right,0.251888036728,participant5,23,59.8726976591,F,trial,2017_May_26_1321,
,,0.23,"[0, 0]",/sounds/legit/equal.wav,,,,,,,,,5,31,206,1,,,,,,,,,,,,,,,right,0.20173406601,participant5,23,59.8726976591,F,trial,2017_May_26_1321,
,,0.23,"[-2.25, 0]",/sounds/legit/left35.wav,,,,,,,,,5,32,207,21,,,,,,,,,,,,,,,left,0.201858997345,participant5,23,59.8726976591,F,trial,2017_May_26_1321,
,,0.49,"[2.25, 0]",/sounds/legit/right35.wav,,,,,,,,,5,33,208,8,,,,,,,,,,,,,,,right,0.101531982422,participant5,23,59.8726976591,F,trial,2017_May_26_1321,
,,0.1,"[0, 0]",/sounds/legit/equal.wav,,,,,,,,,5,34,209,0,,,,,,,,,,,,,,,right,0.151729106903,participant5,23,59.8726976591,F,trial,2017_May_26_1321,
,,0.36,"[-4.5, 0]",/sounds/legit/left70.wav,,,,,,,,,6,0,210,27,,,,,,,,,,,,,,,left,0.18507194519,participant5,23,59.8726976591,F,trial,2017_May_26_1321,
,,0.1,"[-2.25, 0]",/sounds/legit/left35.wav,,,,,,,,,6,1,211,20,,,,,,,,,,,,,,,left,0.168456792831,participant5,23,59.8726976591,F,trial,2017_May_26_1321,
,,0.36,"[4.5, 0]",/sounds/legit/right70.wav,,,,,,,,,6,2,212,12,,,,,,,,,,,,,,,right,0.0682928562164,participant5,23,59.8726976591,F,trial,2017_May_26_1321,
,,0.49,"[6.75, 0]",/sounds/legit/right100.wav,,,,,,,,,6,3,213,18,,,,,,,,,,,,,,,right,0.00143384933472,participant5,23,59.8726976591,F,trial,2017_May_26_1321,
,,0.1,"[0, 0]",/sounds/legit/equal.wav,,,,,,,,,6,4,214,0,,,,,,,,,,,,,,,right,0.552654981613,participant5,23,59.8726976591,F,trial,2017_May_26_1321,
,,0.49,"[-4.5, 0]",/sounds/legit/left70.wav,,,,,,,,,6,5,215,28,,,,,,,,,,,,,,,left,0.485756874084,participant5,23,59.8726976591,F,trial,2017_May_26_1321,
,,0.1,"[-2.25, 0]",/sounds/legit/left35.wav,,,,,,,,,6,6,216,20,,,,,,,,,,,,,,,left,0.184925079346,participant5,23,59.8726976591,F,trial,2017_May_26_1321,
,,0.1,"[-6.75, 0]",/sounds/legit/left100.wav,,,,,,,,,6,7,217,30,,,,,,,,,,,,,,,left,0.184992074966,participant5,23,59.8726976591,F,trial,2017_May_26_1321,
,,0.23,"[2.25, 0]",/sounds/legit/right35.wav,,,,,,,,,6,8,218,6,,,,,,,,,,,,,,,right,0.168368816376,participant5,23,59.8726976591,F,trial,2017_May_26_1321,
,,0.1,"[0, 0]",/sounds/legit/equal.wav,,,,,,,,,6,9,219,0,,,,,,,,,,,,,,,right,0.218775987625,participant5,23,59.8726976591,F,trial,2017_May_26_1321,
,,0.23,"[-6.75, 0]",/sounds/legit/left100.wav,,,,,,,,,6,10,220,31,,,,,,,,,,,,,,,left,0.134954929352,participant5,23,59.8726976591,F,trial,2017_May_26_1321,
,,0.23,"[4.5, 0]",/sounds/legit/right70.wav,,,,,,,,,6,11,221,11,,,,,,,,,,,,,,,right,0.168444871902,participant5,23,59.8726976591,F,trial,2017_May_26_1321,
,,0.1,"[6.75, 0]",/sounds/legit/right100.wav,,,,,,,,,6,12,222,15,,,,,,,,,,,,,,,right,0.118215799332,participant5,23,59.8726976591,F,trial,2017_May_26_1321,
,,0.1,"[-4.5, 0]",/sounds/legit/left70.wav,,,,,,,,,6,13,223,25,,,,,,,,,,,,,,,left,0.185060977936,participant5,23,59.8726976591,F,trial,2017_May_26_1321,
,,0.1,"[-6.75, 0]",/sounds/legit/left100.wav,,,,,,,,,6,14,224,30,,,,,,,,,,,,,,,left,0.218704938889,participant5,23,59.8726976591,F,trial,2017_May_26_1321,
,,0.49,"[-2.25, 0]",/sounds/legit/left35.wav,,,,,,,,,6,15,225,23,,,,,,,,,,,,,,,left,0.184885025024,participant5,23,59.8726976591,F,trial,2017_May_26_1321,
,,0.49,"[2.25, 0]",/sounds/legit/right35.wav,,,,,,,,,6,16,226,8,,,,,,,,,,,,,,,right,0.268690109253,participant5,23,59.8726976591,F,trial,2017_May_26_1321,
,,0.23,"[2.25, 0]",/sounds/legit/right35.wav,,,,,,,,,6,17,227,6,,,,,,,,,,,,,,,right,0.469154119492,participant5,23,59.8726976591,F,trial,2017_May_26_1321,
