path,name,noise,location,correspondingAudio,audiotrials.thisRepN,audiotrials.thisTrialN,audiotrials.thisN,audiotrials.thisIndex,visualTrials.thisRepN,visualTrials.thisTrialN,visualTrials.thisN,visualTrials.thisIndex,combinedTrials.thisRepN,combinedTrials.thisTrialN,combinedTrials.thisN,combinedTrials.thisIndex,WelcomeKey.keys,WelcomeKey.rt,key_resp_2.keys,key_resp_2.rt,AudioInstrAccept.keys,AudioInstrAccept.rt,LeftorRight.keys,LeftorRight.rt,VisualBlock.keys,VisualBlock.rt,VisualDecision.keys,VisualDecision.rt,CombinedAccept.keys,CombinedAccept.rt,CombComparisonResponse.keys,CombComparisonResponse.rt,participant,age,frameRate,sex,expName,date,
,,,,,,,,,,,,,,,,,space,6.49071311951,,,,,,,,,,,,,,,participant1,26 ,59.8440799461,female,trial,2017_May_24_1609,
,,,,,,,,,,,,,,,,,,,space,5.57238817215,,,,,,,,,,,,,participant1,26 ,59.8440799461,female,trial,2017_May_24_1609,
,,,,,,,,,,,,,,,,,,,,,space,9.39113092422,,,,,,,,,,,participant1,26 ,59.8440799461,female,trial,2017_May_24_1609,
/sounds/legit/left35.wav,left30,,,,0,0,0,2,,,,,,,,,,,,,,,left,1.70239591599,,,,,,,,,participant1,26 ,59.8440799461,female,trial,2017_May_24_1609,
/sounds/legit/right70.wav,right60,,,,0,1,1,4,,,,,,,,,,,,,,,right,0.518522977829,,,,,,,,,participant1,26 ,59.8440799461,female,trial,2017_May_24_1609,
/sounds/legit/right35.wav,right30,,,,0,2,2,3,,,,,,,,,,,,,,,left,0.786296844482,,,,,,,,,participant1,26 ,59.8440799461,female,trial,2017_May_24_1609,
/sounds/legit/left100.wav,left100,,,,0,3,3,0,,,,,,,,,,,,,,,left,0.501666069031,,,,,,,,,participant1,26 ,59.8440799461,female,trial,2017_May_24_1609,
/sounds/legit/right100.wav,right100,,,,0,4,4,5,,,,,,,,,,,,,,,right,0.0682229995728,,,,,,,,,participant1,26 ,59.8440799461,female,trial,2017_May_24_1609,
/sounds/legit/left70.wav,left60,,,,0,5,5,1,,,,,,,,,,,,,,,left,0.268223047256,,,,,,,,,participant1,26 ,59.8440799461,female,trial,2017_May_24_1609,
/sounds/legit/right35.wav,right30,,,,1,0,6,3,,,,,,,,,,,,,,,right,0.0180649757385,,,,,,,,,participant1,26 ,59.8440799461,female,trial,2017_May_24_1609,
/sounds/legit/right100.wav,right100,,,,1,1,7,5,,,,,,,,,,,,,,,right,11.4239811897,,,,,,,,,participant1,26 ,59.8440799461,female,trial,2017_May_24_1609,
/sounds/legit/left35.wav,left30,,,,1,2,8,2,,,,,,,,,,,,,,,left,0.501987934113,,,,,,,,,participant1,26 ,59.8440799461,female,trial,2017_May_24_1609,
/sounds/legit/left100.wav,left100,,,,1,3,9,0,,,,,,,,,,,,,,,left,0.284642934799,,,,,,,,,participant1,26 ,59.8440799461,female,trial,2017_May_24_1609,
/sounds/legit/right70.wav,right60,,,,1,4,10,4,,,,,,,,,,,,,,,right,0.417865991592,,,,,,,,,participant1,26 ,59.8440799461,female,trial,2017_May_24_1609,
/sounds/legit/left70.wav,left60,,,,1,5,11,1,,,,,,,,,,,,,,,left,0.634872913361,,,,,,,,,participant1,26 ,59.8440799461,female,trial,2017_May_24_1609,
/sounds/legit/right100.wav,right100,,,,2,0,12,5,,,,,,,,,,,,,,,right,0.135243177414,,,,,,,,,participant1,26 ,59.8440799461,female,trial,2017_May_24_1609,
/sounds/legit/right35.wav,right30,,,,2,1,13,3,,,,,,,,,,,,,,,left,0.619431018829,,,,,,,,,participant1,26 ,59.8440799461,female,trial,2017_May_24_1609,
/sounds/legit/right70.wav,right60,,,,2,2,14,4,,,,,,,,,,,,,,,right,0.134741067886,,,,,,,,,participant1,26 ,59.8440799461,female,trial,2017_May_24_1609,
/sounds/legit/left35.wav,left30,,,,2,3,15,2,,,,,,,,,,,,,,,right,1.00247693062,,,,,,,,,participant1,26 ,59.8440799461,female,trial,2017_May_24_1609,
/sounds/legit/left70.wav,left60,,,,2,4,16,1,,,,,,,,,,,,,,,left,0.468679904938,,,,,,,,,participant1,26 ,59.8440799461,female,trial,2017_May_24_1609,
/sounds/legit/left100.wav,left100,,,,2,5,17,0,,,,,,,,,,,,,,,left,0.201792955399,,,,,,,,,participant1,26 ,59.8440799461,female,trial,2017_May_24_1609,
/sounds/legit/left70.wav,left60,,,,3,0,18,1,,,,,,,,,,,,,,,left,0.352762937546,,,,,,,,,participant1,26 ,59.8440799461,female,trial,2017_May_24_1609,
/sounds/legit/right70.wav,right60,,,,3,1,19,4,,,,,,,,,,,,,,,right,1.56827402115,,,,,,,,,participant1,26 ,59.8440799461,female,trial,2017_May_24_1609,
/sounds/legit/right100.wav,right100,,,,3,2,20,5,,,,,,,,,,,,,,,right,0.468188047409,,,,,,,,,participant1,26 ,59.8440799461,female,trial,2017_May_24_1609,
/sounds/legit/left35.wav,left30,,,,3,3,21,2,,,,,,,,,,,,,,,left,0.852052927017,,,,,,,,,participant1,26 ,59.8440799461,female,trial,2017_May_24_1609,
/sounds/legit/right35.wav,right30,,,,3,4,22,3,,,,,,,,,,,,,,,right,0.419125080109,,,,,,,,,participant1,26 ,59.8440799461,female,trial,2017_May_24_1609,
/sounds/legit/left100.wav,left100,,,,3,5,23,0,,,,,,,,,,,,,,,left,0.0671751499176,,,,,,,,,participant1,26 ,59.8440799461,female,trial,2017_May_24_1609,
/sounds/legit/left100.wav,left100,,,,4,0,24,0,,,,,,,,,,,,,,,left,0.236059904099,,,,,,,,,participant1,26 ,59.8440799461,female,trial,2017_May_24_1609,
/sounds/legit/left35.wav,left30,,,,4,1,25,2,,,,,,,,,,,,,,,left,0.435236930847,,,,,,,,,participant1,26 ,59.8440799461,female,trial,2017_May_24_1609,
/sounds/legit/left70.wav,left60,,,,4,2,26,1,,,,,,,,,,,,,,,left,0.251928091049,,,,,,,,,participant1,26 ,59.8440799461,female,trial,2017_May_24_1609,
/sounds/legit/right70.wav,right60,,,,4,3,27,4,,,,,,,,,,,,,,,right,0.0680952072144,,,,,,,,,participant1,26 ,59.8440799461,female,trial,2017_May_24_1609,
/sounds/legit/right35.wav,right30,,,,4,4,28,3,,,,,,,,,,,,,,,right,0.519015789032,,,,,,,,,participant1,26 ,59.8440799461,female,trial,2017_May_24_1609,
/sounds/legit/right100.wav,right100,,,,4,5,29,5,,,,,,,,,,,,,,,right,0.385030031204,,,,,,,,,participant1,26 ,59.8440799461,female,trial,2017_May_24_1609,
/sounds/legit/left100.wav,left100,,,,5,0,30,0,,,,,,,,,,,,,,,left,0.401744842529,,,,,,,,,participant1,26 ,59.8440799461,female,trial,2017_May_24_1609,
/sounds/legit/right70.wav,right60,,,,5,1,31,4,,,,,,,,,,,,,,,right,0.451517105103,,,,,,,,,participant1,26 ,59.8440799461,female,trial,2017_May_24_1609,
/sounds/legit/right35.wav,right30,,,,5,2,32,3,,,,,,,,,,,,,,,right,0.618140935898,,,,,,,,,participant1,26 ,59.8440799461,female,trial,2017_May_24_1609,
/sounds/legit/right100.wav,right100,,,,5,3,33,5,,,,,,,,,,,,,,,right,0.484237909317,,,,,,,,,participant1,26 ,59.8440799461,female,trial,2017_May_24_1609,
/sounds/legit/left35.wav,left30,,,,5,4,34,2,,,,,,,,,,,,,,,left,0.467553853989,,,,,,,,,participant1,26 ,59.8440799461,female,trial,2017_May_24_1609,
/sounds/legit/left70.wav,left60,,,,5,5,35,1,,,,,,,,,,,,,,,left,0.468804121017,,,,,,,,,participant1,26 ,59.8440799461,female,trial,2017_May_24_1609,
/sounds/legit/right70.wav,right60,,,,6,0,36,4,,,,,,,,,,,,,,,right,0.484238147736,,,,,,,,,participant1,26 ,59.8440799461,female,trial,2017_May_24_1609,
/sounds/legit/left100.wav,left100,,,,6,1,37,0,,,,,,,,,,,,,,,left,0.48504781723,,,,,,,,,participant1,26 ,59.8440799461,female,trial,2017_May_24_1609,
/sounds/legit/left70.wav,left60,,,,6,2,38,1,,,,,,,,,,,,,,,left,0.519028186798,,,,,,,,,participant1,26 ,59.8440799461,female,trial,2017_May_24_1609,
/sounds/legit/right100.wav,right100,,,,6,3,39,5,,,,,,,,,,,,,,,right,0.100777864456,,,,,,,,,participant1,26 ,59.8440799461,female,trial,2017_May_24_1609,
/sounds/legit/right35.wav,right30,,,,6,4,40,3,,,,,,,,,,,,,,,right,0.368970870972,,,,,,,,,participant1,26 ,59.8440799461,female,trial,2017_May_24_1609,
/sounds/legit/left35.wav,left30,,,,6,5,41,2,,,,,,,,,,,,,,,left,0.967703104019,,,,,,,,,participant1,26 ,59.8440799461,female,trial,2017_May_24_1609,
/sounds/legit/right70.wav,right60,,,,7,0,42,4,,,,,,,,,,,,,,,right,0.285824775696,,,,,,,,,participant1,26 ,59.8440799461,female,trial,2017_May_24_1609,
/sounds/legit/left100.wav,left100,,,,7,1,43,0,,,,,,,,,,,,,,,left,1.36934614182,,,,,,,,,participant1,26 ,59.8440799461,female,trial,2017_May_24_1609,
/sounds/legit/left35.wav,left30,,,,7,2,44,2,,,,,,,,,,,,,,,left,0.519222021103,,,,,,,,,participant1,26 ,59.8440799461,female,trial,2017_May_24_1609,
/sounds/legit/left70.wav,left60,,,,7,3,45,1,,,,,,,,,,,,,,,left,0.335072040558,,,,,,,,,participant1,26 ,59.8440799461,female,trial,2017_May_24_1609,
/sounds/legit/right35.wav,right30,,,,7,4,46,3,,,,,,,,,,,,,,,right,0.351886987686,,,,,,,,,participant1,26 ,59.8440799461,female,trial,2017_May_24_1609,
/sounds/legit/right100.wav,right100,,,,7,5,47,5,,,,,,,,,,,,,,,right,0.268341064453,,,,,,,,,participant1,26 ,59.8440799461,female,trial,2017_May_24_1609,
/sounds/legit/right70.wav,right60,,,,8,0,48,4,,,,,,,,,,,,,,,right,0.201612949371,,,,,,,,,participant1,26 ,59.8440799461,female,trial,2017_May_24_1609,
/sounds/legit/left100.wav,left100,,,,8,1,49,0,,,,,,,,,,,,,,,left,0.235757112503,,,,,,,,,participant1,26 ,59.8440799461,female,trial,2017_May_24_1609,
/sounds/legit/left35.wav,left30,,,,8,2,50,2,,,,,,,,,,,,,,,left,1.58593201637,,,,,,,,,participant1,26 ,59.8440799461,female,trial,2017_May_24_1609,
/sounds/legit/left70.wav,left60,,,,8,3,51,1,,,,,,,,,,,,,,,left,0.334830999374,,,,,,,,,participant1,26 ,59.8440799461,female,trial,2017_May_24_1609,
/sounds/legit/right35.wav,right30,,,,8,4,52,3,,,,,,,,,,,,,,,right,0.0351440906525,,,,,,,,,participant1,26 ,59.8440799461,female,trial,2017_May_24_1609,
/sounds/legit/right100.wav,right100,,,,8,5,53,5,,,,,,,,,,,,,,,right,0.183786869049,,,,,,,,,participant1,26 ,59.8440799461,female,trial,2017_May_24_1609,
/sounds/legit/right70.wav,right60,,,,9,0,54,4,,,,,,,,,,,,,,,right,0.0685489177704,,,,,,,,,participant1,26 ,59.8440799461,female,trial,2017_May_24_1609,
/sounds/legit/right100.wav,right100,,,,9,1,55,5,,,,,,,,,,,,,,,right,0.518583059311,,,,,,,,,participant1,26 ,59.8440799461,female,trial,2017_May_24_1609,
/sounds/legit/left35.wav,left30,,,,9,2,56,2,,,,,,,,,,,,,,,left,1.03533387184,,,,,,,,,participant1,26 ,59.8440799461,female,trial,2017_May_24_1609,
/sounds/legit/right35.wav,right30,,,,9,3,57,3,,,,,,,,,,,,,,,right,1.05234193802,,,,,,,,,participant1,26 ,59.8440799461,female,trial,2017_May_24_1609,
/sounds/legit/left70.wav,left60,,,,9,4,58,1,,,,,,,,,,,,,,,left,0.818351984024,,,,,,,,,participant1,26 ,59.8440799461,female,trial,2017_May_24_1609,
/sounds/legit/left100.wav,left100,,,,9,5,59,0,,,,,,,,,,,,,,,left,0.318146944046,,,,,,,,,participant1,26 ,59.8440799461,female,trial,2017_May_24_1609,
,,,,,,,,,,,,,,,,,,,,,,,,,space,21.2471988201,,,,,,,participant1,26 ,59.8440799461,female,trial,2017_May_24_1609,
,,0.23,"[-6.75, 0]",/sounds/legit/left100.wav,,,,,0,0,0,31,,,,,,,,,,,,,,,left,8.48925304413,,,,,participant1,26 ,59.8440799461,female,trial,2017_May_24_1609,
,,0.62,"[6.75, 0]",/sounds/legit/right100.wav,,,,,0,1,1,19,,,,,,,,,,,,,,,left,3.98710894585,,,,,participant1,26 ,59.8440799461,female,trial,2017_May_24_1609,
,,0.49,"[6.75, 0]",/sounds/legit/right100.wav,,,,,0,2,2,18,,,,,,,,,,,,,,,right,2.43566608429,,,,,participant1,26 ,59.8440799461,female,trial,2017_May_24_1609,
,,0.62,"[-6.75, 0]",/sounds/legit/left100.wav,,,,,0,3,3,34,,,,,,,,,,,,,,,right,0.418500900269,,,,,participant1,26 ,59.8440799461,female,trial,2017_May_24_1609,
,,0.23,"[4.5, 0]",/sounds/legit/right60.wav,,,,,0,4,4,11,,,,,,,,,,,,,,,right,0.434588909149,,,,,participant1,26 ,59.8440799461,female,trial,2017_May_24_1609,
,,0.1,"[-2.25, 0]",/sounds/legit/left30.wav,,,,,0,5,5,20,,,,,,,,,,,,,,,right,2.93516516685,,,,,participant1,26 ,59.8440799461,female,trial,2017_May_24_1609,
,,0.1,"[4.5, 0]",/sounds/legit/right60.wav,,,,,0,6,6,10,,,,,,,,,,,,,,,right,4.98684215546,,,,,participant1,26 ,59.8440799461,female,trial,2017_May_24_1609,
,,0.49,"[0, 0]",/sounds/legit/equal.wav,,,,,0,7,7,3,,,,,,,,,,,,,,,right,3.30387496948,,,,,participant1,26 ,59.8440799461,female,trial,2017_May_24_1609,
,,0.36,"[-2.25, 0]",/sounds/legit/left30.wav,,,,,0,8,8,22,,,,,,,,,,,,,,,left,1.3524980545,,,,,participant1,26 ,59.8440799461,female,trial,2017_May_24_1609,
,,0.49,"[2.25, 0]",/sounds/legit/right30.wav,,,,,0,9,9,8,,,,,,,,,,,,,,,left,1.16876292229,,,,,participant1,26 ,59.8440799461,female,trial,2017_May_24_1609,
,,0.1,"[-6.75, 0]",/sounds/legit/left100.wav,,,,,0,10,10,30,,,,,,,,,,,,,,,left,1.43566703796,,,,,participant1,26 ,59.8440799461,female,trial,2017_May_24_1609,
,,0.49,"[4.5, 0]",/sounds/legit/right60.wav,,,,,0,11,11,13,,,,,,,,,,,,,,,right,0.903143167496,,,,,participant1,26 ,59.8440799461,female,trial,2017_May_24_1609,
,,0.1,"[2.25, 0]",/sounds/legit/right30.wav,,,,,0,12,12,5,,,,,,,,,,,,,,,right,0.434847831726,,,,,participant1,26 ,59.8440799461,female,trial,2017_May_24_1609,
,,0.23,"[-4.5, 0]",/sounds/legit/left60.wav,,,,,0,13,13,26,,,,,,,,,,,,,,,left,2.803388834,,,,,participant1,26 ,59.8440799461,female,trial,2017_May_24_1609,
,,0.36,"[-6.75, 0]",/sounds/legit/left100.wav,,,,,0,14,14,32,,,,,,,,,,,,,,,left,2.31859302521,,,,,participant1,26 ,59.8440799461,female,trial,2017_May_24_1609,
,,0.62,"[-2.25, 0]",/sounds/legit/left30.wav,,,,,0,15,15,24,,,,,,,,,,,,,,,left,1.20264410973,,,,,participant1,26 ,59.8440799461,female,trial,2017_May_24_1609,
,,0.62,"[0, 0]",/sounds/legit/equal.wav,,,,,0,16,16,4,,,,,,,,,,,,,,,right,0.484585046768,,,,,participant1,26 ,59.8440799461,female,trial,2017_May_24_1609,
,,0.36,"[6.75, 0]",/sounds/legit/right100.wav,,,,,0,17,17,17,,,,,,,,,,,,,,,right,0.585176944733,,,,,participant1,26 ,59.8440799461,female,trial,2017_May_24_1609,
,,0.36,"[4.5, 0]",/sounds/legit/right60.wav,,,,,0,18,18,12,,,,,,,,,,,,,,,right,0.41819691658,,,,,participant1,26 ,59.8440799461,female,trial,2017_May_24_1609,
,,0.49,"[-2.25, 0]",/sounds/legit/left30.wav,,,,,0,19,19,23,,,,,,,,,,,,,,,right,3.67138195038,,,,,participant1,26 ,59.8440799461,female,trial,2017_May_24_1609,
,,0.1,"[0, 0]",/sounds/legit/equal.wav,,,,,0,20,20,0,,,,,,,,,,,,,,,right,1.95249009132,,,,,participant1,26 ,59.8440799461,female,trial,2017_May_24_1609,
,,0.36,"[-4.5, 0]",/sounds/legit/left60.wav,,,,,0,21,21,27,,,,,,,,,,,,,,,left,0.985116004944,,,,,participant1,26 ,59.8440799461,female,trial,2017_May_24_1609,
,,0.62,"[4.5, 0]",/sounds/legit/right60.wav,,,,,0,22,22,14,,,,,,,,,,,,,,,left,0.802114963531,,,,,participant1,26 ,59.8440799461,female,trial,2017_May_24_1609,
,,0.23,"[-2.25, 0]",/sounds/legit/left30.wav,,,,,0,23,23,21,,,,,,,,,,,,,,,left,0.467895030975,,,,,participant1,26 ,59.8440799461,female,trial,2017_May_24_1609,
,,0.62,"[-4.5, 0]",/sounds/legit/left60.wav,,,,,0,24,24,29,,,,,,,,,,,,,,,left,0.768967866898,,,,,participant1,26 ,59.8440799461,female,trial,2017_May_24_1609,
,,0.36,"[0, 0]",/sounds/legit/equal.wav,,,,,0,25,25,2,,,,,,,,,,,,,,,left,0.601329088211,,,,,participant1,26 ,59.8440799461,female,trial,2017_May_24_1609,
,,0.1,"[6.75, 0]",/sounds/legit/right100.wav,,,,,0,26,26,15,,,,,,,,,,,,,,,right,0.468281030655,,,,,participant1,26 ,59.8440799461,female,trial,2017_May_24_1609,
,,0.1,"[-4.5, 0]",/sounds/legit/left60.wav,,,,,0,27,27,25,,,,,,,,,,,,,,,right,0.837172985077,,,,,participant1,26 ,59.8440799461,female,trial,2017_May_24_1609,
,,0.49,"[-6.75, 0]",/sounds/legit/left100.wav,,,,,0,28,28,33,,,,,,,,,,,,,,,right,3.1862039566,,,,,participant1,26 ,59.8440799461,female,trial,2017_May_24_1609,
,,0.36,"[2.25, 0]",/sounds/legit/right30.wav,,,,,0,29,29,7,,,,,,,,,,,,,,,right,0.78475189209,,,,,participant1,26 ,59.8440799461,female,trial,2017_May_24_1609,
,,0.23,"[6.75, 0]",/sounds/legit/right100.wav,,,,,0,30,30,16,,,,,,,,,,,,,,,right,0.535151004791,,,,,participant1,26 ,59.8440799461,female,trial,2017_May_24_1609,
,,0.49,"[-4.5, 0]",/sounds/legit/left60.wav,,,,,0,31,31,28,,,,,,,,,,,,,,,right,0.683525085449,,,,,participant1,26 ,59.8440799461,female,trial,2017_May_24_1609,
,,0.23,"[0, 0]",/sounds/legit/equal.wav,,,,,0,32,32,1,,,,,,,,,,,,,,,left,0.618882894516,,,,,participant1,26 ,59.8440799461,female,trial,2017_May_24_1609,
,,0.23,"[2.25, 0]",/sounds/legit/right30.wav,,,,,0,33,33,6,,,,,,,,,,,,,,,right,0.985348939896,,,,,participant1,26 ,59.8440799461,female,trial,2017_May_24_1609,
,,0.62,"[2.25, 0]",/sounds/legit/right30.wav,,,,,0,34,34,9,,,,,,,,,,,,,,,right,0.569468975067,,,,,participant1,26 ,59.8440799461,female,trial,2017_May_24_1609,
,,0.62,"[-6.75, 0]",/sounds/legit/left100.wav,,,,,1,0,35,34,,,,,,,,,,,,,,,right,0.550899028778,,,,,participant1,26 ,59.8440799461,female,trial,2017_May_24_1609,
,,0.1,"[6.75, 0]",/sounds/legit/right100.wav,,,,,1,1,36,15,,,,,,,,,,,,,,,right,0.601928949356,,,,,participant1,26 ,59.8440799461,female,trial,2017_May_24_1609,
,,0.49,"[-6.75, 0]",/sounds/legit/left100.wav,,,,,1,2,37,33,,,,,,,,,,,,,,,left,0.0343079566956,,,,,participant1,26 ,59.8440799461,female,trial,2017_May_24_1609,
,,0.23,"[0, 0]",/sounds/legit/equal.wav,,,,,1,3,38,1,,,,,,,,,,,,,,,right,0.918810129166,,,,,participant1,26 ,59.8440799461,female,trial,2017_May_24_1609,
,,0.62,"[0, 0]",/sounds/legit/equal.wav,,,,,1,4,39,4,,,,,,,,,,,,,,,left,3.80336499214,,,,,participant1,26 ,59.8440799461,female,trial,2017_May_24_1609,
,,0.62,"[4.5, 0]",/sounds/legit/right60.wav,,,,,1,5,40,14,,,,,,,,,,,,,,,right,0.535095930099,,,,,participant1,26 ,59.8440799461,female,trial,2017_May_24_1609,
,,0.49,"[-2.25, 0]",/sounds/legit/left30.wav,,,,,1,6,41,23,,,,,,,,,,,,,,,left,0.551496982574,,,,,participant1,26 ,59.8440799461,female,trial,2017_May_24_1609,
,,0.1,"[2.25, 0]",/sounds/legit/right30.wav,,,,,1,7,42,5,,,,,,,,,,,,,,,right,0.0846660137177,,,,,participant1,26 ,59.8440799461,female,trial,2017_May_24_1609,
,,0.49,"[6.75, 0]",/sounds/legit/right100.wav,,,,,1,8,43,18,,,,,,,,,,,,,,,right,0.30199098587,,,,,participant1,26 ,59.8440799461,female,trial,2017_May_24_1609,
,,0.49,"[2.25, 0]",/sounds/legit/right30.wav,,,,,1,9,44,8,,,,,,,,,,,,,,,right,0.301879882812,,,,,participant1,26 ,59.8440799461,female,trial,2017_May_24_1609,
,,0.23,"[2.25, 0]",/sounds/legit/right30.wav,,,,,1,10,45,6,,,,,,,,,,,,,,,right,0.0846478939056,,,,,participant1,26 ,59.8440799461,female,trial,2017_May_24_1609,
,,0.1,"[0, 0]",/sounds/legit/equal.wav,,,,,1,11,46,0,,,,,,,,,,,,,,,left,0.402529001236,,,,,participant1,26 ,59.8440799461,female,trial,2017_May_24_1609,
,,0.49,"[0, 0]",/sounds/legit/equal.wav,,,,,1,12,47,3,,,,,,,,,,,,,,,left,0.134580850601,,,,,participant1,26 ,59.8440799461,female,trial,2017_May_24_1609,
,,0.1,"[-6.75, 0]",/sounds/legit/left100.wav,,,,,1,13,48,30,,,,,,,,,,,,,,,left,0.318059921265,,,,,participant1,26 ,59.8440799461,female,trial,2017_May_24_1609,
,,0.62,"[2.25, 0]",/sounds/legit/right30.wav,,,,,1,14,49,9,,,,,,,,,,,,,,,right,0.017942905426,,,,,participant1,26 ,59.8440799461,female,trial,2017_May_24_1609,
,,0.36,"[2.25, 0]",/sounds/legit/right30.wav,,,,,1,15,50,7,,,,,,,,,,,,,,,right,0.101071119308,,,,,participant1,26 ,59.8440799461,female,trial,2017_May_24_1609,
,,0.1,"[-4.5, 0]",/sounds/legit/left60.wav,,,,,1,16,51,25,,,,,,,,,,,,,,,left,0.0500419139862,,,,,participant1,26 ,59.8440799461,female,trial,2017_May_24_1609,
,,0.1,"[4.5, 0]",/sounds/legit/right60.wav,,,,,1,17,52,10,,,,,,,,,,,,,,,right,4.73799610138,,,,,participant1,26 ,59.8440799461,female,trial,2017_May_24_1609,
,,0.49,"[4.5, 0]",/sounds/legit/right60.wav,,,,,1,18,53,13,,,,,,,,,,,,,,,right,0.150960206985,,,,,participant1,26 ,59.8440799461,female,trial,2017_May_24_1609,
,,0.23,"[-2.25, 0]",/sounds/legit/left30.wav,,,,,1,19,54,21,,,,,,,,,,,,,,,left,0.284544944763,,,,,participant1,26 ,59.8440799461,female,trial,2017_May_24_1609,
,,0.1,"[-2.25, 0]",/sounds/legit/left30.wav,,,,,1,20,55,20,,,,,,,,,,,,,,,left,4.37143993378,,,,,participant1,26 ,59.8440799461,female,trial,2017_May_24_1609,
,,0.23,"[4.5, 0]",/sounds/legit/right60.wav,,,,,1,21,56,11,,,,,,,,,,,,,,,right,3.0191950798,,,,,participant1,26 ,59.8440799461,female,trial,2017_May_24_1609,
,,0.36,"[4.5, 0]",/sounds/legit/right60.wav,,,,,1,22,57,12,,,,,,,,,,,,,,,right,0.118283987045,,,,,participant1,26 ,59.8440799461,female,trial,2017_May_24_1609,
,,0.62,"[6.75, 0]",/sounds/legit/right100.wav,,,,,1,23,58,19,,,,,,,,,,,,,,,right,0.535599946976,,,,,participant1,26 ,59.8440799461,female,trial,2017_May_24_1609,
,,0.36,"[-4.5, 0]",/sounds/legit/left60.wav,,,,,1,24,59,27,,,,,,,,,,,,,,,left,0.36815404892,,,,,participant1,26 ,59.8440799461,female,trial,2017_May_24_1609,
,,0.23,"[6.75, 0]",/sounds/legit/right100.wav,,,,,1,25,60,16,,,,,,,,,,,,,,,right,2.9861638546,,,,,participant1,26 ,59.8440799461,female,trial,2017_May_24_1609,
,,0.62,"[-2.25, 0]",/sounds/legit/left30.wav,,,,,1,26,61,24,,,,,,,,,,,,,,,left,0.268194913864,,,,,participant1,26 ,59.8440799461,female,trial,2017_May_24_1609,
,,0.36,"[-2.25, 0]",/sounds/legit/left30.wav,,,,,1,27,62,22,,,,,,,,,,,,,,,left,0.26913690567,,,,,participant1,26 ,59.8440799461,female,trial,2017_May_24_1609,
,,0.49,"[-4.5, 0]",/sounds/legit/left60.wav,,,,,1,28,63,28,,,,,,,,,,,,,,,left,3.30311203003,,,,,participant1,26 ,59.8440799461,female,trial,2017_May_24_1609,
,,0.36,"[-6.75, 0]",/sounds/legit/left100.wav,,,,,1,29,64,32,,,,,,,,,,,,,,,left,0.836002111435,,,,,participant1,26 ,59.8440799461,female,trial,2017_May_24_1609,
,,0.62,"[-4.5, 0]",/sounds/legit/left60.wav,,,,,1,30,65,29,,,,,,,,,,,,,,,left,0.585253000259,,,,,participant1,26 ,59.8440799461,female,trial,2017_May_24_1609,
,,0.36,"[6.75, 0]",/sounds/legit/right100.wav,,,,,1,31,66,17,,,,,,,,,,,,,,,right,0.201318979263,,,,,participant1,26 ,59.8440799461,female,trial,2017_May_24_1609,
,,0.36,"[0, 0]",/sounds/legit/equal.wav,,,,,1,32,67,2,,,,,,,,,,,,,,,left,0.58488202095,,,,,participant1,26 ,59.8440799461,female,trial,2017_May_24_1609,
,,0.23,"[-6.75, 0]",/sounds/legit/left100.wav,,,,,1,33,68,31,,,,,,,,,,,,,,,left,0.0188829898834,,,,,participant1,26 ,59.8440799461,female,trial,2017_May_24_1609,
,,0.23,"[-4.5, 0]",/sounds/legit/left60.wav,,,,,1,34,69,26,,,,,,,,,,,,,,,left,0.635446071625,,,,,participant1,26 ,59.8440799461,female,trial,2017_May_24_1609,
,,0.62,"[-6.75, 0]",/sounds/legit/left100.wav,,,,,2,0,70,34,,,,,,,,,,,,,,,left,0.601423025131,,,,,participant1,26 ,59.8440799461,female,trial,2017_May_24_1609,
,,0.36,"[2.25, 0]",/sounds/legit/right30.wav,,,,,2,1,71,7,,,,,,,,,,,,,,,right,0.550920009613,,,,,participant1,26 ,59.8440799461,female,trial,2017_May_24_1609,
,,0.36,"[6.75, 0]",/sounds/legit/right100.wav,,,,,2,2,72,17,,,,,,,,,,,,,,,right,0.0683379173279,,,,,participant1,26 ,59.8440799461,female,trial,2017_May_24_1609,
,,0.49,"[-4.5, 0]",/sounds/legit/left60.wav,,,,,2,3,73,28,,,,,,,,,,,,,,,left,3.15372180939,,,,,participant1,26 ,59.8440799461,female,trial,2017_May_24_1609,
,,0.36,"[-2.25, 0]",/sounds/legit/left30.wav,,,,,2,4,74,22,,,,,,,,,,,,,,,left,0.634702920914,,,,,participant1,26 ,59.8440799461,female,trial,2017_May_24_1609,
,,0.36,"[0, 0]",/sounds/legit/equal.wav,,,,,2,5,75,2,,,,,,,,,,,,,,,left,1.28626894951,,,,,participant1,26 ,59.8440799461,female,trial,2017_May_24_1609,
,,0.36,"[4.5, 0]",/sounds/legit/right60.wav,,,,,2,6,76,12,,,,,,,,,,,,,,,left,0.233961105347,,,,,participant1,26 ,59.8440799461,female,trial,2017_May_24_1609,
,,0.62,"[-2.25, 0]",/sounds/legit/left30.wav,,,,,2,7,77,24,,,,,,,,,,,,,,,left,0.601728916168,,,,,participant1,26 ,59.8440799461,female,trial,2017_May_24_1609,
,,0.23,"[6.75, 0]",/sounds/legit/right100.wav,,,,,2,8,78,16,,,,,,,,,,,,,,,right,0.118286848068,,,,,participant1,26 ,59.8440799461,female,trial,2017_May_24_1609,
,,0.1,"[-2.25, 0]",/sounds/legit/left30.wav,,,,,2,9,79,20,,,,,,,,,,,,,,,left,0.718492984772,,,,,participant1,26 ,59.8440799461,female,trial,2017_May_24_1609,
,,0.1,"[-6.75, 0]",/sounds/legit/left100.wav,,,,,2,10,80,30,,,,,,,,,,,,,,,left,0.502259016037,,,,,participant1,26 ,59.8440799461,female,trial,2017_May_24_1609,
,,0.62,"[6.75, 0]",/sounds/legit/right100.wav,,,,,2,11,81,19,,,,,,,,,,,,,,,right,0.584326028824,,,,,participant1,26 ,59.8440799461,female,trial,2017_May_24_1609,
,,0.23,"[-4.5, 0]",/sounds/legit/left60.wav,,,,,2,12,82,26,,,,,,,,,,,,,,,left,3.00193405151,,,,,participant1,26 ,59.8440799461,female,trial,2017_May_24_1609,
,,0.23,"[4.5, 0]",/sounds/legit/right60.wav,,,,,2,13,83,11,,,,,,,,,,,,,,,left,3.30324816704,,,,,participant1,26 ,59.8440799461,female,trial,2017_May_24_1609,
,,0.23,"[0, 0]",/sounds/legit/equal.wav,,,,,2,14,84,1,,,,,,,,,,,,,,,left,0.534880876541,,,,,participant1,26 ,59.8440799461,female,trial,2017_May_24_1609,
,,0.1,"[0, 0]",/sounds/legit/equal.wav,,,,,2,15,85,0,,,,,,,,,,,,,,,left,0.551773071289,,,,,participant1,26 ,59.8440799461,female,trial,2017_May_24_1609,
,,0.62,"[4.5, 0]",/sounds/legit/right60.wav,,,,,2,16,86,14,,,,,,,,,,,,,,,right,0.534579992294,,,,,participant1,26 ,59.8440799461,female,trial,2017_May_24_1609,
,,0.36,"[-6.75, 0]",/sounds/legit/left100.wav,,,,,2,17,87,32,,,,,,,,,,,,,,,left,0.435725927353,,,,,participant1,26 ,59.8440799461,female,trial,2017_May_24_1609,
,,0.49,"[2.25, 0]",/sounds/legit/right30.wav,,,,,2,18,88,8,,,,,,,,,,,,,,,right,1.26929712296,,,,,participant1,26 ,59.8440799461,female,trial,2017_May_24_1609,
,,0.1,"[-4.5, 0]",/sounds/legit/left60.wav,,,,,2,19,89,25,,,,,,,,,,,,,,,left,0.55186009407,,,,,participant1,26 ,59.8440799461,female,trial,2017_May_24_1609,
,,0.49,"[4.5, 0]",/sounds/legit/right60.wav,,,,,2,20,90,13,,,,,,,,,,,,,,,right,0.651919126511,,,,,participant1,26 ,59.8440799461,female,trial,2017_May_24_1609,
,,0.23,"[-2.25, 0]",/sounds/legit/left30.wav,,,,,2,21,91,21,,,,,,,,,,,,,,,left,0.518312931061,,,,,participant1,26 ,59.8440799461,female,trial,2017_May_24_1609,
,,0.23,"[2.25, 0]",/sounds/legit/right30.wav,,,,,2,22,92,6,,,,,,,,,,,,,,,right,0.385601997375,,,,,participant1,26 ,59.8440799461,female,trial,2017_May_24_1609,
,,0.49,"[-6.75, 0]",/sounds/legit/left100.wav,,,,,2,23,93,33,,,,,,,,,,,,,,,left,0.468780040741,,,,,participant1,26 ,59.8440799461,female,trial,2017_May_24_1609,
,,0.49,"[0, 0]",/sounds/legit/equal.wav,,,,,2,24,94,3,,,,,,,,,,,,,,,left,0.735199928284,,,,,participant1,26 ,59.8440799461,female,trial,2017_May_24_1609,
,,0.62,"[0, 0]",/sounds/legit/equal.wav,,,,,2,25,95,4,,,,,,,,,,,,,,,left,0.66840004921,,,,,participant1,26 ,59.8440799461,female,trial,2017_May_24_1609,
,,0.49,"[-2.25, 0]",/sounds/legit/left30.wav,,,,,2,26,96,23,,,,,,,,,,,,,,,left,0.65179681778,,,,,participant1,26 ,59.8440799461,female,trial,2017_May_24_1609,
,,0.23,"[-6.75, 0]",/sounds/legit/left100.wav,,,,,2,27,97,31,,,,,,,,,,,,,,,left,0.618728876114,,,,,participant1,26 ,59.8440799461,female,trial,2017_May_24_1609,
,,0.49,"[6.75, 0]",/sounds/legit/right100.wav,,,,,2,28,98,18,,,,,,,,,,,,,,,right,0.518292188644,,,,,participant1,26 ,59.8440799461,female,trial,2017_May_24_1609,
,,0.62,"[-4.5, 0]",/sounds/legit/left60.wav,,,,,2,29,99,29,,,,,,,,,,,,,,,left,2.70257782936,,,,,participant1,26 ,59.8440799461,female,trial,2017_May_24_1609,
,,0.1,"[2.25, 0]",/sounds/legit/right30.wav,,,,,2,30,100,5,,,,,,,,,,,,,,,right,0.0847408771515,,,,,participant1,26 ,59.8440799461,female,trial,2017_May_24_1609,
,,0.1,"[6.75, 0]",/sounds/legit/right100.wav,,,,,2,31,101,15,,,,,,,,,,,,,,,right,0.251128911972,,,,,participant1,26 ,59.8440799461,female,trial,2017_May_24_1609,
,,0.1,"[4.5, 0]",/sounds/legit/right60.wav,,,,,2,32,102,10,,,,,,,,,,,,,,,right,0.584257125854,,,,,participant1,26 ,59.8440799461,female,trial,2017_May_24_1609,
,,0.36,"[-4.5, 0]",/sounds/legit/left60.wav,,,,,2,33,103,27,,,,,,,,,,,,,,,left,0.651542901993,,,,,participant1,26 ,59.8440799461,female,trial,2017_May_24_1609,
,,0.62,"[2.25, 0]",/sounds/legit/right30.wav,,,,,2,34,104,9,,,,,,,,,,,,,,,right,0.284843921661,,,,,participant1,26 ,59.8440799461,female,trial,2017_May_24_1609,
,,0.62,"[2.25, 0]",/sounds/legit/right30.wav,,,,,3,0,105,9,,,,,,,,,,,,,,,right,0.869109153748,,,,,participant1,26 ,59.8440799461,female,trial,2017_May_24_1609,
,,0.23,"[-2.25, 0]",/sounds/legit/left30.wav,,,,,3,1,106,21,,,,,,,,,,,,,,,left,0.685374975204,,,,,participant1,26 ,59.8440799461,female,trial,2017_May_24_1609,
,,0.23,"[4.5, 0]",/sounds/legit/right60.wav,,,,,3,2,107,11,,,,,,,,,,,,,,,right,3.05237698555,,,,,participant1,26 ,59.8440799461,female,trial,2017_May_24_1609,
,,0.1,"[-4.5, 0]",/sounds/legit/left60.wav,,,,,3,3,108,25,,,,,,,,,,,,,,,left,0.701920986176,,,,,participant1,26 ,59.8440799461,female,trial,2017_May_24_1609,
,,0.1,"[2.25, 0]",/sounds/legit/right30.wav,,,,,3,4,109,5,,,,,,,,,,,,,,,right,0.585225105286,,,,,participant1,26 ,59.8440799461,female,trial,2017_May_24_1609,
,,0.1,"[-2.25, 0]",/sounds/legit/left30.wav,,,,,3,5,110,20,,,,,,,,,,,,,,,left,0.651768922806,,,,,participant1,26 ,59.8440799461,female,trial,2017_May_24_1609,
,,0.1,"[0, 0]",/sounds/legit/equal.wav,,,,,3,6,111,0,,,,,,,,,,,,,,,left,0.551658153534,,,,,participant1,26 ,59.8440799461,female,trial,2017_May_24_1609,
,,0.23,"[0, 0]",/sounds/legit/equal.wav,,,,,3,7,112,1,,,,,,,,,,,,,,,left,0.535316944122,,,,,participant1,26 ,59.8440799461,female,trial,2017_May_24_1609,
,,0.62,"[-4.5, 0]",/sounds/legit/left60.wav,,,,,3,8,113,29,,,,,,,,,,,,,,,left,0.38511300087,,,,,participant1,26 ,59.8440799461,female,trial,2017_May_24_1609,
,,0.23,"[-4.5, 0]",/sounds/legit/left60.wav,,,,,3,9,114,26,,,,,,,,,,,,,,,left,0.234241962433,,,,,participant1,26 ,59.8440799461,female,trial,2017_May_24_1609,
,,0.36,"[-2.25, 0]",/sounds/legit/left30.wav,,,,,3,10,115,22,,,,,,,,,,,,,,,left,0.618016958237,,,,,participant1,26 ,59.8440799461,female,trial,2017_May_24_1609,
,,0.49,"[2.25, 0]",/sounds/legit/right30.wav,,,,,3,11,116,8,,,,,,,,,,,,,,,right,0.585945129395,,,,,participant1,26 ,59.8440799461,female,trial,2017_May_24_1609,
,,0.36,"[4.5, 0]",/sounds/legit/right60.wav,,,,,3,12,117,12,,,,,,,,,,,,,,,right,0.301764011383,,,,,participant1,26 ,59.8440799461,female,trial,2017_May_24_1609,
,,0.49,"[6.75, 0]",/sounds/legit/right100.wav,,,,,3,13,118,18,,,,,,,,,,,,,,,right,0.385811805725,,,,,participant1,26 ,59.8440799461,female,trial,2017_May_24_1609,
,,0.1,"[6.75, 0]",/sounds/legit/right100.wav,,,,,3,14,119,15,,,,,,,,,,,,,,,right,0.118530988693,,,,,participant1,26 ,59.8440799461,female,trial,2017_May_24_1609,
,,0.49,"[-4.5, 0]",/sounds/legit/left60.wav,,,,,3,15,120,28,,,,,,,,,,,,,,,left,0.11802816391,,,,,participant1,26 ,59.8440799461,female,trial,2017_May_24_1609,
,,0.23,"[2.25, 0]",/sounds/legit/right30.wav,,,,,3,16,121,6,,,,,,,,,,,,,,,right,2.78618478775,,,,,participant1,26 ,59.8440799461,female,trial,2017_May_24_1609,
,,0.62,"[-6.75, 0]",/sounds/legit/left100.wav,,,,,3,17,122,34,,,,,,,,,,,,,,,left,1.5688021183,,,,,participant1,26 ,59.8440799461,female,trial,2017_May_24_1609,
,,0.62,"[4.5, 0]",/sounds/legit/right60.wav,,,,,3,18,123,14,,,,,,,,,,,,,,,right,0.752153158188,,,,,participant1,26 ,59.8440799461,female,trial,2017_May_24_1609,
,,0.23,"[6.75, 0]",/sounds/legit/right100.wav,,,,,3,19,124,16,,,,,,,,,,,,,,,right,2.3856549263,,,,,participant1,26 ,59.8440799461,female,trial,2017_May_24_1609,
,,0.49,"[4.5, 0]",/sounds/legit/right60.wav,,,,,3,20,125,13,,,,,,,,,,,,,,,right,0.651737928391,,,,,participant1,26 ,59.8440799461,female,trial,2017_May_24_1609,
,,0.49,"[-2.25, 0]",/sounds/legit/left30.wav,,,,,3,21,126,23,,,,,,,,,,,,,,,left,0.61919593811,,,,,participant1,26 ,59.8440799461,female,trial,2017_May_24_1609,
,,0.49,"[0, 0]",/sounds/legit/equal.wav,,,,,3,22,127,3,,,,,,,,,,,,,,,left,0.518152952194,,,,,participant1,26 ,59.8440799461,female,trial,2017_May_24_1609,
,,0.36,"[2.25, 0]",/sounds/legit/right30.wav,,,,,3,23,128,7,,,,,,,,,,,,,,,right,0.333773851395,,,,,participant1,26 ,59.8440799461,female,trial,2017_May_24_1609,
,,0.49,"[-6.75, 0]",/sounds/legit/left100.wav,,,,,3,24,129,33,,,,,,,,,,,,,,,left,0.368176937103,,,,,participant1,26 ,59.8440799461,female,trial,2017_May_24_1609,
,,0.62,"[0, 0]",/sounds/legit/equal.wav,,,,,3,25,130,4,,,,,,,,,,,,,,,left,0.684821844101,,,,,participant1,26 ,59.8440799461,female,trial,2017_May_24_1609,
,,0.36,"[6.75, 0]",/sounds/legit/right100.wav,,,,,3,26,131,17,,,,,,,,,,,,,,,right,0.534982919693,,,,,participant1,26 ,59.8440799461,female,trial,2017_May_24_1609,
,,0.36,"[-6.75, 0]",/sounds/legit/left100.wav,,,,,3,27,132,32,,,,,,,,,,,,,,,left,0.251888990402,,,,,participant1,26 ,59.8440799461,female,trial,2017_May_24_1609,
,,0.36,"[-4.5, 0]",/sounds/legit/left60.wav,,,,,3,28,133,27,,,,,,,,,,,,,,,left,0.300048112869,,,,,participant1,26 ,59.8440799461,female,trial,2017_May_24_1609,
,,0.23,"[-6.75, 0]",/sounds/legit/left100.wav,,,,,3,29,134,31,,,,,,,,,,,,,,,left,0.667731046677,,,,,participant1,26 ,59.8440799461,female,trial,2017_May_24_1609,
,,0.1,"[-6.75, 0]",/sounds/legit/left100.wav,,,,,3,30,135,30,,,,,,,,,,,,,,,left,0.568477153778,,,,,participant1,26 ,59.8440799461,female,trial,2017_May_24_1609,
,,0.1,"[4.5, 0]",/sounds/legit/right60.wav,,,,,3,31,136,10,,,,,,,,,,,,,,,right,0.0850808620453,,,,,participant1,26 ,59.8440799461,female,trial,2017_May_24_1609,
,,0.62,"[-2.25, 0]",/sounds/legit/left30.wav,,,,,3,32,137,24,,,,,,,,,,,,,,,left,0.551433801651,,,,,participant1,26 ,59.8440799461,female,trial,2017_May_24_1609,
,,0.62,"[6.75, 0]",/sounds/legit/right100.wav,,,,,3,33,138,19,,,,,,,,,,,,,,,right,0.518548965454,,,,,participant1,26 ,59.8440799461,female,trial,2017_May_24_1609,
,,0.36,"[0, 0]",/sounds/legit/equal.wav,,,,,3,34,139,2,,,,,,,,,,,,,,,left,0.502094984055,,,,,participant1,26 ,59.8440799461,female,trial,2017_May_24_1609,
,,0.62,"[6.75, 0]",/sounds/legit/right100.wav,,,,,4,0,140,19,,,,,,,,,,,,,,,right,0.484848976135,,,,,participant1,26 ,59.8440799461,female,trial,2017_May_24_1609,
,,0.23,"[6.75, 0]",/sounds/legit/right100.wav,,,,,4,1,141,16,,,,,,,,,,,,,,,right,0.535338878632,,,,,participant1,26 ,59.8440799461,female,trial,2017_May_24_1609,
,,0.36,"[-2.25, 0]",/sounds/legit/left30.wav,,,,,4,2,142,22,,,,,,,,,,,,,,,left,0.484494924545,,,,,participant1,26 ,59.8440799461,female,trial,2017_May_24_1609,
,,0.36,"[-6.75, 0]",/sounds/legit/left100.wav,,,,,4,3,143,32,,,,,,,,,,,,,,,left,0.469230175018,,,,,participant1,26 ,59.8440799461,female,trial,2017_May_24_1609,
,,0.62,"[-4.5, 0]",/sounds/legit/left60.wav,,,,,4,4,144,29,,,,,,,,,,,,,,,left,0.485485076904,,,,,participant1,26 ,59.8440799461,female,trial,2017_May_24_1609,
,,0.23,"[-2.25, 0]",/sounds/legit/left30.wav,,,,,4,5,145,21,,,,,,,,,,,,,,,left,0.017557144165,,,,,participant1,26 ,59.8440799461,female,trial,2017_May_24_1609,
,,0.62,"[0, 0]",/sounds/legit/equal.wav,,,,,4,6,146,4,,,,,,,,,,,,,,,left,0.73452091217,,,,,participant1,26 ,59.8440799461,female,trial,2017_May_24_1609,
,,0.49,"[0, 0]",/sounds/legit/equal.wav,,,,,4,7,147,3,,,,,,,,,,,,,,,left,0.684940814972,,,,,participant1,26 ,59.8440799461,female,trial,2017_May_24_1609,
,,0.1,"[4.5, 0]",/sounds/legit/right60.wav,,,,,4,8,148,10,,,,,,,,,,,,,,,right,0.451536893845,,,,,participant1,26 ,59.8440799461,female,trial,2017_May_24_1609,
,,0.1,"[0, 0]",/sounds/legit/equal.wav,,,,,4,9,149,0,,,,,,,,,,,,,,,left,0.701212882996,,,,,participant1,26 ,59.8440799461,female,trial,2017_May_24_1609,
,,0.62,"[4.5, 0]",/sounds/legit/right60.wav,,,,,4,10,150,14,,,,,,,,,,,,,,,right,0.551836013794,,,,,participant1,26 ,59.8440799461,female,trial,2017_May_24_1609,
,,0.23,"[4.5, 0]",/sounds/legit/right60.wav,,,,,4,11,151,11,,,,,,,,,,,,,,,right,0.117871046066,,,,,participant1,26 ,59.8440799461,female,trial,2017_May_24_1609,
,,0.23,"[-6.75, 0]",/sounds/legit/left100.wav,,,,,4,12,152,31,,,,,,,,,,,,,,,left,3.37109398842,,,,,participant1,26 ,59.8440799461,female,trial,2017_May_24_1609,
,,0.36,"[0, 0]",/sounds/legit/equal.wav,,,,,4,13,153,2,,,,,,,,,,,,,,,left,0.485338926315,,,,,participant1,26 ,59.8440799461,female,trial,2017_May_24_1609,
,,0.36,"[4.5, 0]",/sounds/legit/right60.wav,,,,,4,14,154,12,,,,,,,,,,,,,,,right,0.0681400299072,,,,,participant1,26 ,59.8440799461,female,trial,2017_May_24_1609,
,,0.62,"[-6.75, 0]",/sounds/legit/left100.wav,,,,,4,15,155,34,,,,,,,,,,,,,,,left,0.584732055664,,,,,participant1,26 ,59.8440799461,female,trial,2017_May_24_1609,
,,0.23,"[2.25, 0]",/sounds/legit/right30.wav,,,,,4,16,156,6,,,,,,,,,,,,,,,right,0.519154071808,,,,,participant1,26 ,59.8440799461,female,trial,2017_May_24_1609,
,,0.1,"[-6.75, 0]",/sounds/legit/left100.wav,,,,,4,17,157,30,,,,,,,,,,,,,,,left,0.468949079514,,,,,participant1,26 ,59.8440799461,female,trial,2017_May_24_1609,
,,0.1,"[-4.5, 0]",/sounds/legit/left60.wav,,,,,4,18,158,25,,,,,,,,,,,,,,,left,0.134293079376,,,,,participant1,26 ,59.8440799461,female,trial,2017_May_24_1609,
,,0.36,"[6.75, 0]",/sounds/legit/right100.wav,,,,,4,19,159,17,,,,,,,,,,,,,,,right,0.0351400375366,,,,,participant1,26 ,59.8440799461,female,trial,2017_May_24_1609,
,,0.49,"[6.75, 0]",/sounds/legit/right100.wav,,,,,4,20,160,18,,,,,,,,,,,,,,,right,0.534072875977,,,,,participant1,26 ,59.8440799461,female,trial,2017_May_24_1609,
,,0.36,"[-4.5, 0]",/sounds/legit/left60.wav,,,,,4,21,161,27,,,,,,,,,,,,,,,left,0.501543045044,,,,,participant1,26 ,59.8440799461,female,trial,2017_May_24_1609,
,,0.1,"[6.75, 0]",/sounds/legit/right100.wav,,,,,4,22,162,15,,,,,,,,,,,,,,,right,0.0684940814972,,,,,participant1,26 ,59.8440799461,female,trial,2017_May_24_1609,
,,0.23,"[0, 0]",/sounds/legit/equal.wav,,,,,4,23,163,1,,,,,,,,,,,,,,,left,0.501657962799,,,,,participant1,26 ,59.8440799461,female,trial,2017_May_24_1609,
,,0.62,"[2.25, 0]",/sounds/legit/right30.wav,,,,,4,24,164,9,,,,,,,,,,,,,,,right,0.234952926636,,,,,participant1,26 ,59.8440799461,female,trial,2017_May_24_1609,
,,0.49,"[-2.25, 0]",/sounds/legit/left30.wav,,,,,4,25,165,23,,,,,,,,,,,,,,,left,0.151259899139,,,,,participant1,26 ,59.8440799461,female,trial,2017_May_24_1609,
,,0.62,"[-2.25, 0]",/sounds/legit/left30.wav,,,,,4,26,166,24,,,,,,,,,,,,,,,left,0.551706075668,,,,,participant1,26 ,59.8440799461,female,trial,2017_May_24_1609,
,,0.49,"[4.5, 0]",/sounds/legit/right60.wav,,,,,4,27,167,13,,,,,,,,,,,,,,,right,0.0682470798492,,,,,participant1,26 ,59.8440799461,female,trial,2017_May_24_1609,
,,0.36,"[2.25, 0]",/sounds/legit/right30.wav,,,,,4,28,168,7,,,,,,,,,,,,,,,right,0.118232965469,,,,,participant1,26 ,59.8440799461,female,trial,2017_May_24_1609,
,,0.49,"[-6.75, 0]",/sounds/legit/left100.wav,,,,,4,29,169,33,,,,,,,,,,,,,,,left,2.23695898056,,,,,participant1,26 ,59.8440799461,female,trial,2017_May_24_1609,
,,0.49,"[-4.5, 0]",/sounds/legit/left60.wav,,,,,4,30,170,28,,,,,,,,,,,,,,,left,1.06880903244,,,,,participant1,26 ,59.8440799461,female,trial,2017_May_24_1609,
,,0.49,"[2.25, 0]",/sounds/legit/right30.wav,,,,,4,31,171,8,,,,,,,,,,,,,,,right,0.23481297493,,,,,participant1,26 ,59.8440799461,female,trial,2017_May_24_1609,
,,0.23,"[-4.5, 0]",/sounds/legit/left60.wav,,,,,4,32,172,26,,,,,,,,,,,,,,,left,1.73587918282,,,,,participant1,26 ,59.8440799461,female,trial,2017_May_24_1609,
,,0.1,"[2.25, 0]",/sounds/legit/right30.wav,,,,,4,33,173,5,,,,,,,,,,,,,,,right,1.53589987755,,,,,participant1,26 ,59.8440799461,female,trial,2017_May_24_1609,
,,0.1,"[-2.25, 0]",/sounds/legit/left30.wav,,,,,4,34,174,20,,,,,,,,,,,,,,,left,0.11878991127,,,,,participant1,26 ,59.8440799461,female,trial,2017_May_24_1609,
,,0.23,"[-4.5, 0]",/sounds/legit/left60.wav,,,,,5,0,175,26,,,,,,,,,,,,,,,left,0.18399810791,,,,,participant1,26 ,59.8440799461,female,trial,2017_May_24_1609,
,,0.36,"[-4.5, 0]",/sounds/legit/left60.wav,,,,,5,1,176,27,,,,,,,,,,,,,,,left,0.0178799629211,,,,,participant1,26 ,59.8440799461,female,trial,2017_May_24_1609,
,,0.23,"[-6.75, 0]",/sounds/legit/left100.wav,,,,,5,2,177,31,,,,,,,,,,,,,,,left,0.0846879482269,,,,,participant1,26 ,59.8440799461,female,trial,2017_May_24_1609,
,,0.1,"[-2.25, 0]",/sounds/legit/left30.wav,,,,,5,3,178,20,,,,,,,,,,,,,,,left,0.0674920082092,,,,,participant1,26 ,59.8440799461,female,trial,2017_May_24_1609,
,,0.36,"[-2.25, 0]",/sounds/legit/left30.wav,,,,,5,4,179,22,,,,,,,,,,,,,,,left,0.15131187439,,,,,participant1,26 ,59.8440799461,female,trial,2017_May_24_1609,
,,0.1,"[0, 0]",/sounds/legit/equal.wav,,,,,5,5,180,0,,,,,,,,,,,,,,,left,0.468416929245,,,,,participant1,26 ,59.8440799461,female,trial,2017_May_24_1609,
,,0.62,"[-4.5, 0]",/sounds/legit/left60.wav,,,,,5,6,181,29,,,,,,,,,,,,,,,left,0.635402917862,,,,,participant1,26 ,59.8440799461,female,trial,2017_May_24_1609,
,,0.23,"[0, 0]",/sounds/legit/equal.wav,,,,,5,7,182,1,,,,,,,,,,,,,,,left,0.451125144958,,,,,participant1,26 ,59.8440799461,female,trial,2017_May_24_1609,
,,0.49,"[4.5, 0]",/sounds/legit/right60.wav,,,,,5,8,183,13,,,,,,,,,,,,,,,right,0.3185338974,,,,,participant1,26 ,59.8440799461,female,trial,2017_May_24_1609,
,,0.36,"[-6.75, 0]",/sounds/legit/left100.wav,,,,,5,9,184,32,,,,,,,,,,,,,,,left,0.0176289081573,,,,,participant1,26 ,59.8440799461,female,trial,2017_May_24_1609,
,,0.1,"[6.75, 0]",/sounds/legit/right100.wav,,,,,5,10,185,15,,,,,,,,,,,,,,,right,0.0175530910492,,,,,participant1,26 ,59.8440799461,female,trial,2017_May_24_1609,
,,0.62,"[0, 0]",/sounds/legit/equal.wav,,,,,5,11,186,4,,,,,,,,,,,,,,,right,0.0684130191803,,,,,participant1,26 ,59.8440799461,female,trial,2017_May_24_1609,
,,0.49,"[0, 0]",/sounds/legit/equal.wav,,,,,5,12,187,3,,,,,,,,,,,,,,,left,0.534590959549,,,,,participant1,26 ,59.8440799461,female,trial,2017_May_24_1609,
,,0.23,"[-2.25, 0]",/sounds/legit/left30.wav,,,,,5,13,188,21,,,,,,,,,,,,,,,left,0.00164794921875,,,,,participant1,26 ,59.8440799461,female,trial,2017_May_24_1609,
,,0.49,"[2.25, 0]",/sounds/legit/right30.wav,,,,,5,14,189,8,,,,,,,,,,,,,,,right,0.0183620452881,,,,,participant1,26 ,59.8440799461,female,trial,2017_May_24_1609,
,,0.62,"[-2.25, 0]",/sounds/legit/left30.wav,,,,,5,15,190,24,,,,,,,,,,,,,,,left,0.48502612114,,,,,participant1,26 ,59.8440799461,female,trial,2017_May_24_1609,
,,0.23,"[2.25, 0]",/sounds/legit/right30.wav,,,,,5,16,191,6,,,,,,,,,,,,,,,right,4.37026500702,,,,,participant1,26 ,59.8440799461,female,trial,2017_May_24_1609,
,,0.49,"[6.75, 0]",/sounds/legit/right100.wav,,,,,5,17,192,18,,,,,,,,,,,,,,,right,0.23534989357,,,,,participant1,26 ,59.8440799461,female,trial,2017_May_24_1609,
,,0.1,"[2.25, 0]",/sounds/legit/right30.wav,,,,,5,18,193,5,,,,,,,,,,,,,,,right,0.219214916229,,,,,participant1,26 ,59.8440799461,female,trial,2017_May_24_1609,
,,0.49,"[-4.5, 0]",/sounds/legit/left60.wav,,,,,5,19,194,28,,,,,,,,,,,,,,,left,0.61819601059,,,,,participant1,26 ,59.8440799461,female,trial,2017_May_24_1609,
,,0.49,"[-6.75, 0]",/sounds/legit/left100.wav,,,,,5,20,195,33,,,,,,,,,,,,,,,left,0.167797088623,,,,,participant1,26 ,59.8440799461,female,trial,2017_May_24_1609,
,,0.36,"[0, 0]",/sounds/legit/equal.wav,,,,,5,21,196,2,,,,,,,,,,,,,,,left,0.535547018051,,,,,participant1,26 ,59.8440799461,female,trial,2017_May_24_1609,
,,0.23,"[4.5, 0]",/sounds/legit/right60.wav,,,,,5,22,197,11,,,,,,,,,,,,,,,right,0.11830496788,,,,,participant1,26 ,59.8440799461,female,trial,2017_May_24_1609,
,,0.62,"[4.5, 0]",/sounds/legit/right60.wav,,,,,5,23,198,14,,,,,,,,,,,,,,,right,0.402107000351,,,,,participant1,26 ,59.8440799461,female,trial,2017_May_24_1609,
,,0.36,"[4.5, 0]",/sounds/legit/right60.wav,,,,,5,24,199,12,,,,,,,,,,,,,,,right,0.284934997559,,,,,participant1,26 ,59.8440799461,female,trial,2017_May_24_1609,
,,0.36,"[2.25, 0]",/sounds/legit/right30.wav,,,,,5,25,200,7,,,,,,,,,,,,,,,right,0.468031167984,,,,,participant1,26 ,59.8440799461,female,trial,2017_May_24_1609,
,,0.1,"[-4.5, 0]",/sounds/legit/left60.wav,,,,,5,26,201,25,,,,,,,,,,,,,,,left,0.550307035446,,,,,participant1,26 ,59.8440799461,female,trial,2017_May_24_1609,
,,0.49,"[-2.25, 0]",/sounds/legit/left30.wav,,,,,5,27,202,23,,,,,,,,,,,,,,,left,0.468542814255,,,,,participant1,26 ,59.8440799461,female,trial,2017_May_24_1609,
,,0.62,"[2.25, 0]",/sounds/legit/right30.wav,,,,,5,28,203,9,,,,,,,,,,,,,,,right,0.151651859283,,,,,participant1,26 ,59.8440799461,female,trial,2017_May_24_1609,
,,0.23,"[6.75, 0]",/sounds/legit/right100.wav,,,,,5,29,204,16,,,,,,,,,,,,,,,right,3.33674502373,,,,,participant1,26 ,59.8440799461,female,trial,2017_May_24_1609,
,,0.36,"[6.75, 0]",/sounds/legit/right100.wav,,,,,5,30,205,17,,,,,,,,,,,,,,,right,0.15057682991,,,,,participant1,26 ,59.8440799461,female,trial,2017_May_24_1609,
,,0.62,"[-6.75, 0]",/sounds/legit/left100.wav,,,,,5,31,206,34,,,,,,,,,,,,,,,left,0.0519421100616,,,,,participant1,26 ,59.8440799461,female,trial,2017_May_24_1609,
,,0.1,"[-6.75, 0]",/sounds/legit/left100.wav,,,,,5,32,207,30,,,,,,,,,,,,,,,left,0.101671934128,,,,,participant1,26 ,59.8440799461,female,trial,2017_May_24_1609,
,,0.62,"[6.75, 0]",/sounds/legit/right100.wav,,,,,5,33,208,19,,,,,,,,,,,,,,,right,0.701434135437,,,,,participant1,26 ,59.8440799461,female,trial,2017_May_24_1609,
,,0.1,"[4.5, 0]",/sounds/legit/right60.wav,,,,,5,34,209,10,,,,,,,,,,,,,,,right,0.584878921509,,,,,participant1,26 ,59.8440799461,female,trial,2017_May_24_1609,
,,0.62,"[0, 0]",/sounds/legit/equal.wav,,,,,6,0,210,4,,,,,,,,,,,,,,,left,0.518350124359,,,,,participant1,26 ,59.8440799461,female,trial,2017_May_24_1609,
,,0.49,"[4.5, 0]",/sounds/legit/right60.wav,,,,,6,1,211,13,,,,,,,,,,,,,,,right,3.40309810638,,,,,participant1,26 ,59.8440799461,female,trial,2017_May_24_1609,
,,0.49,"[0, 0]",/sounds/legit/equal.wav,,,,,6,2,212,3,,,,,,,,,,,,,,,left,0.869340181351,,,,,participant1,26 ,59.8440799461,female,trial,2017_May_24_1609,
,,0.36,"[4.5, 0]",/sounds/legit/right60.wav,,,,,6,3,213,12,,,,,,,,,,,,,,,right,0.834752082825,,,,,participant1,26 ,59.8440799461,female,trial,2017_May_24_1609,
,,0.62,"[6.75, 0]",/sounds/legit/right100.wav,,,,,6,4,214,19,,,,,,,,,,,,,,,right,0.652369022369,,,,,participant1,26 ,59.8440799461,female,trial,2017_May_24_1609,
,,0.1,"[-4.5, 0]",/sounds/legit/left60.wav,,,,,6,5,215,25,,,,,,,,,,,,,,,left,0.635998010635,,,,,participant1,26 ,59.8440799461,female,trial,2017_May_24_1609,
,,0.36,"[2.25, 0]",/sounds/legit/right30.wav,,,,,6,6,216,7,,,,,,,,,,,,,,,right,0.751887798309,,,,,participant1,26 ,59.8440799461,female,trial,2017_May_24_1609,
,,0.49,"[6.75, 0]",/sounds/legit/right100.wav,,,,,6,7,217,18,,,,,,,,,,,,,,,right,0.932970046997,,,,,participant1,26 ,59.8440799461,female,trial,2017_May_24_1609,
,,0.1,"[6.75, 0]",/sounds/legit/right100.wav,,,,,6,8,218,15,,,,,,,,,,,,,,,right,0.518201112747,,,,,participant1,26 ,59.8440799461,female,trial,2017_May_24_1609,
,,0.23,"[4.5, 0]",/sounds/legit/right60.wav,,,,,6,9,219,11,,,,,,,,,,,,,,,right,0.601969003677,,,,,participant1,26 ,59.8440799461,female,trial,2017_May_24_1609,
,,0.49,"[-4.5, 0]",/sounds/legit/left60.wav,,,,,6,10,220,28,,,,,,,,,,,,,,,left,0.535198926926,,,,,participant1,26 ,59.8440799461,female,trial,2017_May_24_1609,
,,0.1,"[0, 0]",/sounds/legit/equal.wav,,,,,6,11,221,0,,,,,,,,,,,,,,,left,0.93546795845,,,,,participant1,26 ,59.8440799461,female,trial,2017_May_24_1609,
,,0.36,"[-2.25, 0]",/sounds/legit/left30.wav,,,,,6,12,222,22,,,,,,,,,,,,,,,left,0.584681034088,,,,,participant1,26 ,59.8440799461,female,trial,2017_May_24_1609,
,,0.49,"[2.25, 0]",/sounds/legit/right30.wav,,,,,6,13,223,8,,,,,,,,,,,,,,,right,0.467913866043,,,,,participant1,26 ,59.8440799461,female,trial,2017_May_24_1609,
,,0.23,"[0, 0]",/sounds/legit/equal.wav,,,,,6,14,224,1,,,,,,,,,,,,,,,left,0.619098901749,,,,,participant1,26 ,59.8440799461,female,trial,2017_May_24_1609,
,,0.36,"[0, 0]",/sounds/legit/equal.wav,,,,,6,15,225,2,,,,,,,,,,,,,,,left,0.485207080841,,,,,participant1,26 ,59.8440799461,female,trial,2017_May_24_1609,
,,0.49,"[-2.25, 0]",/sounds/legit/left30.wav,,,,,6,16,226,23,,,,,,,,,,,,,,,left,0.768663883209,,,,,participant1,26 ,59.8440799461,female,trial,2017_May_24_1609,
,,0.36,"[6.75, 0]",/sounds/legit/right100.wav,,,,,6,17,227,17,,,,,,,,,,,,,,,right,0.11846613884,,,,,participant1,26 ,59.8440799461,female,trial,2017_May_24_1609,
,,0.23,"[6.75, 0]",/sounds/legit/right100.wav,,,,,6,18,228,16,,,,,,,,,,,,,,,right,0.218266963959,,,,,participant1,26 ,59.8440799461,female,trial,2017_May_24_1609,
,,0.23,"[-2.25, 0]",/sounds/legit/left30.wav,,,,,6,19,229,21,,,,,,,,,,,,,,,left,0.535296916962,,,,,participant1,26 ,59.8440799461,female,trial,2017_May_24_1609,
,,0.36,"[-6.75, 0]",/sounds/legit/left100.wav,,,,,6,20,230,32,,,,,,,,,,,,,,,left,0.869061946869,,,,,participant1,26 ,59.8440799461,female,trial,2017_May_24_1609,
,,0.62,"[-6.75, 0]",/sounds/legit/left100.wav,,,,,6,21,231,34,,,,,,,,,,,,,,,left,0.568888902664,,,,,participant1,26 ,59.8440799461,female,trial,2017_May_24_1609,
,,0.23,"[-6.75, 0]",/sounds/legit/left100.wav,,,,,6,22,232,31,,,,,,,,,,,,,,,left,0.56799697876,,,,,participant1,26 ,59.8440799461,female,trial,2017_May_24_1609,
,,0.62,"[-4.5, 0]",/sounds/legit/left60.wav,,,,,6,23,233,29,,,,,,,,,,,,,,,left,0.468820095062,,,,,participant1,26 ,59.8440799461,female,trial,2017_May_24_1609,
,,0.1,"[-6.75, 0]",/sounds/legit/left100.wav,,,,,6,24,234,30,,,,,,,,,,,,,,,left,0.284924030304,,,,,participant1,26 ,59.8440799461,female,trial,2017_May_24_1609,
,,0.62,"[4.5, 0]",/sounds/legit/right60.wav,,,,,6,25,235,14,,,,,,,,,,,,,,,right,0.135087013245,,,,,participant1,26 ,59.8440799461,female,trial,2017_May_24_1609,
,,0.1,"[2.25, 0]",/sounds/legit/right30.wav,,,,,6,26,236,5,,,,,,,,,,,,,,,right,0.486116886139,,,,,participant1,26 ,59.8440799461,female,trial,2017_May_24_1609,
,,0.1,"[-2.25, 0]",/sounds/legit/left30.wav,,,,,6,27,237,20,,,,,,,,,,,,,,,left,3.35312390327,,,,,participant1,26 ,59.8440799461,female,trial,2017_May_24_1609,
,,0.62,"[2.25, 0]",/sounds/legit/right30.wav,,,,,6,28,238,9,,,,,,,,,,,,,,,right,0.168987035751,,,,,participant1,26 ,59.8440799461,female,trial,2017_May_24_1609,
,,0.49,"[-6.75, 0]",/sounds/legit/left100.wav,,,,,6,29,239,33,,,,,,,,,,,,,,,left,0.768183946609,,,,,participant1,26 ,59.8440799461,female,trial,2017_May_24_1609,
,,0.1,"[4.5, 0]",/sounds/legit/right60.wav,,,,,6,30,240,10,,,,,,,,,,,,,,,right,0.669114112854,,,,,participant1,26 ,59.8440799461,female,trial,2017_May_24_1609,
,,0.62,"[-2.25, 0]",/sounds/legit/left30.wav,,,,,6,31,241,24,,,,,,,,,,,,,,,left,0.902652025223,,,,,participant1,26 ,59.8440799461,female,trial,2017_May_24_1609,
,,0.36,"[-4.5, 0]",/sounds/legit/left60.wav,,,,,6,32,242,27,,,,,,,,,,,,,,,left,0.734539031982,,,,,participant1,26 ,59.8440799461,female,trial,2017_May_24_1609,
,,0.23,"[-4.5, 0]",/sounds/legit/left60.wav,,,,,6,33,243,26,,,,,,,,,,,,,,,left,0.800410985947,,,,,participant1,26 ,59.8440799461,female,trial,2017_May_24_1609,
,,0.23,"[2.25, 0]",/sounds/legit/right30.wav,,,,,6,34,244,6,,,,,,,,,,,,,,,right,0.150532007217,,,,,participant1,26 ,59.8440799461,female,trial,2017_May_24_1609,
,,0.36,"[-4.5, 0]",/sounds/legit/left60.wav,,,,,7,0,245,27,,,,,,,,,,,,,,,left,0.519381999969,,,,,participant1,26 ,59.8440799461,female,trial,2017_May_24_1609,
,,0.62,"[6.75, 0]",/sounds/legit/right100.wav,,,,,7,1,246,19,,,,,,,,,,,,,,,right,1.33598685265,,,,,participant1,26 ,59.8440799461,female,trial,2017_May_24_1609,
,,0.36,"[-6.75, 0]",/sounds/legit/left100.wav,,,,,7,2,247,32,,,,,,,,,,,,,,,left,0.117666006088,,,,,participant1,26 ,59.8440799461,female,trial,2017_May_24_1609,
,,0.36,"[6.75, 0]",/sounds/legit/right100.wav,,,,,7,3,248,17,,,,,,,,,,,,,,,right,0.552529096603,,,,,participant1,26 ,59.8440799461,female,trial,2017_May_24_1609,
,,0.36,"[4.5, 0]",/sounds/legit/right60.wav,,,,,7,4,249,12,,,,,,,,,,,,,,,right,2.51932811737,,,,,participant1,26 ,59.8440799461,female,trial,2017_May_24_1609,
,,0.49,"[-4.5, 0]",/sounds/legit/left60.wav,,,,,7,5,250,28,,,,,,,,,,,,,,,left,0.550853013992,,,,,participant1,26 ,59.8440799461,female,trial,2017_May_24_1609,
,,0.23,"[4.5, 0]",/sounds/legit/right60.wav,,,,,7,6,251,11,,,,,,,,,,,,,,,right,0.351871013641,,,,,participant1,26 ,59.8440799461,female,trial,2017_May_24_1609,
,,0.62,"[2.25, 0]",/sounds/legit/right30.wav,,,,,7,7,252,9,,,,,,,,,,,,,,,left,3.0702958107,,,,,participant1,26 ,59.8440799461,female,trial,2017_May_24_1609,
,,0.36,"[-2.25, 0]",/sounds/legit/left30.wav,,,,,7,8,253,22,,,,,,,,,,,,,,,left,0.602114915848,,,,,participant1,26 ,59.8440799461,female,trial,2017_May_24_1609,
,,0.62,"[-4.5, 0]",/sounds/legit/left60.wav,,,,,7,9,254,29,,,,,,,,,,,,,,,left,0.651725053787,,,,,participant1,26 ,59.8440799461,female,trial,2017_May_24_1609,
,,0.1,"[6.75, 0]",/sounds/legit/right100.wav,,,,,7,10,255,15,,,,,,,,,,,,,,,right,0.568731784821,,,,,participant1,26 ,59.8440799461,female,trial,2017_May_24_1609,
,,0.49,"[6.75, 0]",/sounds/legit/right100.wav,,,,,7,11,256,18,,,,,,,,,,,,,,,right,0.535002946854,,,,,participant1,26 ,59.8440799461,female,trial,2017_May_24_1609,
,,0.23,"[6.75, 0]",/sounds/legit/right100.wav,,,,,7,12,257,16,,,,,,,,,,,,,,,right,0.634903907776,,,,,participant1,26 ,59.8440799461,female,trial,2017_May_24_1609,
,,0.1,"[-2.25, 0]",/sounds/legit/left30.wav,,,,,7,13,258,20,,,,,,,,,,,,,,,left,0.651724100113,,,,,participant1,26 ,59.8440799461,female,trial,2017_May_24_1609,
,,0.49,"[-2.25, 0]",/sounds/legit/left30.wav,,,,,7,14,259,23,,,,,,,,,,,,,,,left,0.61833691597,,,,,participant1,26 ,59.8440799461,female,trial,2017_May_24_1609,
,,0.49,"[4.5, 0]",/sounds/legit/right60.wav,,,,,7,15,260,13,,,,,,,,,,,,,,,right,0.417677164078,,,,,participant1,26 ,59.8440799461,female,trial,2017_May_24_1609,
,,0.23,"[-2.25, 0]",/sounds/legit/left30.wav,,,,,7,16,261,21,,,,,,,,,,,,,,,left,0.386025905609,,,,,participant1,26 ,59.8440799461,female,trial,2017_May_24_1609,
,,0.1,"[4.5, 0]",/sounds/legit/right60.wav,,,,,7,17,262,10,,,,,,,,,,,,,,,right,0.434370994568,,,,,participant1,26 ,59.8440799461,female,trial,2017_May_24_1609,
,,0.1,"[2.25, 0]",/sounds/legit/right30.wav,,,,,7,18,263,5,,,,,,,,,,,,,,,right,4.43701314926,,,,,participant1,26 ,59.8440799461,female,trial,2017_May_24_1609,
,,0.23,"[-6.75, 0]",/sounds/legit/left100.wav,,,,,7,19,264,31,,,,,,,,,,,,,,,left,0.734910964966,,,,,participant1,26 ,59.8440799461,female,trial,2017_May_24_1609,
,,0.1,"[-6.75, 0]",/sounds/legit/left100.wav,,,,,7,20,265,30,,,,,,,,,,,,,,,left,0.0678730010986,,,,,participant1,26 ,59.8440799461,female,trial,2017_May_24_1609,
,,0.23,"[2.25, 0]",/sounds/legit/right30.wav,,,,,7,21,266,6,,,,,,,,,,,,,,,right,0.00163698196411,,,,,participant1,26 ,59.8440799461,female,trial,2017_May_24_1609,
,,0.49,"[-6.75, 0]",/sounds/legit/left100.wav,,,,,7,22,267,33,,,,,,,,,,,,,,,left,0.584849119186,,,,,participant1,26 ,59.8440799461,female,trial,2017_May_24_1609,
,,0.23,"[-4.5, 0]",/sounds/legit/left60.wav,,,,,7,23,268,26,,,,,,,,,,,,,,,left,0.401114940643,,,,,participant1,26 ,59.8440799461,female,trial,2017_May_24_1609,
,,0.49,"[0, 0]",/sounds/legit/equal.wav,,,,,7,24,269,3,,,,,,,,,,,,,,,left,0.25174498558,,,,,participant1,26 ,59.8440799461,female,trial,2017_May_24_1609,
,,0.62,"[0, 0]",/sounds/legit/equal.wav,,,,,7,25,270,4,,,,,,,,,,,,,,,left,0.335256099701,,,,,participant1,26 ,59.8440799461,female,trial,2017_May_24_1609,
,,0.62,"[-2.25, 0]",/sounds/legit/left30.wav,,,,,7,26,271,24,,,,,,,,,,,,,,,left,0.601845979691,,,,,participant1,26 ,59.8440799461,female,trial,2017_May_24_1609,
,,0.1,"[-4.5, 0]",/sounds/legit/left60.wav,,,,,7,27,272,25,,,,,,,,,,,,,,,left,0.468745946884,,,,,participant1,26 ,59.8440799461,female,trial,2017_May_24_1609,
,,0.49,"[2.25, 0]",/sounds/legit/right30.wav,,,,,7,28,273,8,,,,,,,,,,,,,,,left,0.0015561580658,,,,,participant1,26 ,59.8440799461,female,trial,2017_May_24_1609,
,,0.1,"[0, 0]",/sounds/legit/equal.wav,,,,,7,29,274,0,,,,,,,,,,,,,,,right,0.583571195602,,,,,participant1,26 ,59.8440799461,female,trial,2017_May_24_1609,
,,0.62,"[-6.75, 0]",/sounds/legit/left100.wav,,,,,7,30,275,34,,,,,,,,,,,,,,,left,0.485517978668,,,,,participant1,26 ,59.8440799461,female,trial,2017_May_24_1609,
,,0.62,"[4.5, 0]",/sounds/legit/right60.wav,,,,,7,31,276,14,,,,,,,,,,,,,,,right,0.318386793137,,,,,participant1,26 ,59.8440799461,female,trial,2017_May_24_1609,
,,0.36,"[0, 0]",/sounds/legit/equal.wav,,,,,7,32,277,2,,,,,,,,,,,,,,,left,0.501716852188,,,,,participant1,26 ,59.8440799461,female,trial,2017_May_24_1609,
,,0.23,"[0, 0]",/sounds/legit/equal.wav,,,,,7,33,278,1,,,,,,,,,,,,,,,left,0.43500995636,,,,,participant1,26 ,59.8440799461,female,trial,2017_May_24_1609,
,,0.36,"[2.25, 0]",/sounds/legit/right30.wav,,,,,7,34,279,7,,,,,,,,,,,,,,,right,0.3025431633,,,,,participant1,26 ,59.8440799461,female,trial,2017_May_24_1609,
,,0.1,"[-6.75, 0]",/sounds/legit/left100.wav,,,,,8,0,280,30,,,,,,,,,,,,,,,left,0.0184090137482,,,,,participant1,26 ,59.8440799461,female,trial,2017_May_24_1609,
,,0.49,"[-6.75, 0]",/sounds/legit/left100.wav,,,,,8,1,281,33,,,,,,,,,,,,,,,left,0.567816972733,,,,,participant1,26 ,59.8440799461,female,trial,2017_May_24_1609,
,,0.1,"[-4.5, 0]",/sounds/legit/left60.wav,,,,,8,2,282,25,,,,,,,,,,,,,,,left,0.251959085464,,,,,participant1,26 ,59.8440799461,female,trial,2017_May_24_1609,
,,0.49,"[-4.5, 0]",/sounds/legit/left60.wav,,,,,8,3,283,28,,,,,,,,,,,,,,,left,0.251282930374,,,,,participant1,26 ,59.8440799461,female,trial,2017_May_24_1609,
,,0.23,"[-6.75, 0]",/sounds/legit/left100.wav,,,,,8,4,284,31,,,,,,,,,,,,,,,left,0.152235984802,,,,,participant1,26 ,59.8440799461,female,trial,2017_May_24_1609,
,,0.49,"[4.5, 0]",/sounds/legit/right60.wav,,,,,8,5,285,13,,,,,,,,,,,,,,,left,0.552353143692,,,,,participant1,26 ,59.8440799461,female,trial,2017_May_24_1609,
,,0.36,"[-4.5, 0]",/sounds/legit/left60.wav,,,,,8,6,286,27,,,,,,,,,,,,,,,left,0.635803937912,,,,,participant1,26 ,59.8440799461,female,trial,2017_May_24_1609,
,,0.23,"[-2.25, 0]",/sounds/legit/left30.wav,,,,,8,7,287,21,,,,,,,,,,,,,,,left,0.502145051956,,,,,participant1,26 ,59.8440799461,female,trial,2017_May_24_1609,
,,0.36,"[0, 0]",/sounds/legit/equal.wav,,,,,8,8,288,2,,,,,,,,,,,,,,,left,1.20236492157,,,,,participant1,26 ,59.8440799461,female,trial,2017_May_24_1609,
,,0.1,"[0, 0]",/sounds/legit/equal.wav,,,,,8,9,289,0,,,,,,,,,,,,,,,left,2.55292606354,,,,,participant1,26 ,59.8440799461,female,trial,2017_May_24_1609,
,,0.49,"[0, 0]",/sounds/legit/equal.wav,,,,,8,10,290,3,,,,,,,,,,,,,,,left,0.502644062042,,,,,participant1,26 ,59.8440799461,female,trial,2017_May_24_1609,
,,0.36,"[4.5, 0]",/sounds/legit/right60.wav,,,,,8,11,291,12,,,,,,,,,,,,,,,right,0.4679479599,,,,,participant1,26 ,59.8440799461,female,trial,2017_May_24_1609,
,,0.49,"[6.75, 0]",/sounds/legit/right100.wav,,,,,8,12,292,18,,,,,,,,,,,,,,,right,1.57008910179,,,,,participant1,26 ,59.8440799461,female,trial,2017_May_24_1609,
,,0.62,"[6.75, 0]",/sounds/legit/right100.wav,,,,,8,13,293,19,,,,,,,,,,,,,,,right,0.735743999481,,,,,participant1,26 ,59.8440799461,female,trial,2017_May_24_1609,
,,0.62,"[0, 0]",/sounds/legit/equal.wav,,,,,8,14,294,4,,,,,,,,,,,,,,,left,0.651924133301,,,,,participant1,26 ,59.8440799461,female,trial,2017_May_24_1609,
,,0.49,"[2.25, 0]",/sounds/legit/right30.wav,,,,,8,15,295,8,,,,,,,,,,,,,,,right,0.751236200333,,,,,participant1,26 ,59.8440799461,female,trial,2017_May_24_1609,
,,0.23,"[6.75, 0]",/sounds/legit/right100.wav,,,,,8,16,296,16,,,,,,,,,,,,,,,right,0.652192115784,,,,,participant1,26 ,59.8440799461,female,trial,2017_May_24_1609,
,,0.36,"[6.75, 0]",/sounds/legit/right100.wav,,,,,8,17,297,17,,,,,,,,,,,,,,,right,0.135015964508,,,,,participant1,26 ,59.8440799461,female,trial,2017_May_24_1609,
,,0.1,"[6.75, 0]",/sounds/legit/right100.wav,,,,,8,18,298,15,,,,,,,,,,,,,,,right,2.61925792694,,,,,participant1,26 ,59.8440799461,female,trial,2017_May_24_1609,
,,0.62,"[-4.5, 0]",/sounds/legit/left60.wav,,,,,8,19,299,29,,,,,,,,,,,,,,,left,0.601547956467,,,,,participant1,26 ,59.8440799461,female,trial,2017_May_24_1609,
,,0.36,"[-6.75, 0]",/sounds/legit/left100.wav,,,,,8,20,300,32,,,,,,,,,,,,,,,left,0.0511169433594,,,,,participant1,26 ,59.8440799461,female,trial,2017_May_24_1609,
,,0.36,"[2.25, 0]",/sounds/legit/right30.wav,,,,,8,21,301,7,,,,,,,,,,,,,,,right,0.152127981186,,,,,participant1,26 ,59.8440799461,female,trial,2017_May_24_1609,
,,0.23,"[2.25, 0]",/sounds/legit/right30.wav,,,,,8,22,302,6,,,,,,,,,,,,,,,right,0.168020009995,,,,,participant1,26 ,59.8440799461,female,trial,2017_May_24_1609,
,,0.23,"[-4.5, 0]",/sounds/legit/left60.wav,,,,,8,23,303,26,,,,,,,,,,,,,,,left,0.185902118683,,,,,participant1,26 ,59.8440799461,female,trial,2017_May_24_1609,
,,0.23,"[0, 0]",/sounds/legit/equal.wav,,,,,8,24,304,1,,,,,,,,,,,,,,,left,0.43548989296,,,,,participant1,26 ,59.8440799461,female,trial,2017_May_24_1609,
,,0.49,"[-2.25, 0]",/sounds/legit/left30.wav,,,,,8,25,305,23,,,,,,,,,,,,,,,left,0.551197052002,,,,,participant1,26 ,59.8440799461,female,trial,2017_May_24_1609,
,,0.23,"[4.5, 0]",/sounds/legit/right60.wav,,,,,8,26,306,11,,,,,,,,,,,,,,,right,0.502398014069,,,,,participant1,26 ,59.8440799461,female,trial,2017_May_24_1609,
,,0.62,"[-2.25, 0]",/sounds/legit/left30.wav,,,,,8,27,307,24,,,,,,,,,,,,,,,left,0.634863138199,,,,,participant1,26 ,59.8440799461,female,trial,2017_May_24_1609,
,,0.1,"[4.5, 0]",/sounds/legit/right60.wav,,,,,8,28,308,10,,,,,,,,,,,,,,,right,0.0511181354523,,,,,participant1,26 ,59.8440799461,female,trial,2017_May_24_1609,
,,0.62,"[2.25, 0]",/sounds/legit/right30.wav,,,,,8,29,309,9,,,,,,,,,,,,,,,right,0.0681080818176,,,,,participant1,26 ,59.8440799461,female,trial,2017_May_24_1609,
,,0.1,"[-2.25, 0]",/sounds/legit/left30.wav,,,,,8,30,310,20,,,,,,,,,,,,,,,left,0.352199077606,,,,,participant1,26 ,59.8440799461,female,trial,2017_May_24_1609,
,,0.62,"[-6.75, 0]",/sounds/legit/left100.wav,,,,,8,31,311,34,,,,,,,,,,,,,,,left,0.567986965179,,,,,participant1,26 ,59.8440799461,female,trial,2017_May_24_1609,
,,0.62,"[4.5, 0]",/sounds/legit/right60.wav,,,,,8,32,312,14,,,,,,,,,,,,,,,right,0.469265937805,,,,,participant1,26 ,59.8440799461,female,trial,2017_May_24_1609,
,,0.36,"[-2.25, 0]",/sounds/legit/left30.wav,,,,,8,33,313,22,,,,,,,,,,,,,,,left,0.384804010391,,,,,participant1,26 ,59.8440799461,female,trial,2017_May_24_1609,
,,0.1,"[2.25, 0]",/sounds/legit/right30.wav,,,,,8,34,314,5,,,,,,,,,,,,,,,right,0.151711940765,,,,,participant1,26 ,59.8440799461,female,trial,2017_May_24_1609,
,,0.36,"[4.5, 0]",/sounds/legit/right60.wav,,,,,9,0,315,12,,,,,,,,,,,,,,,right,0.118172883987,,,,,participant1,26 ,59.8440799461,female,trial,2017_May_24_1609,
,,0.36,"[2.25, 0]",/sounds/legit/right30.wav,,,,,9,1,316,7,,,,,,,,,,,,,,,right,2.70384812355,,,,,participant1,26 ,59.8440799461,female,trial,2017_May_24_1609,
,,0.49,"[-2.25, 0]",/sounds/legit/left30.wav,,,,,9,2,317,23,,,,,,,,,,,,,,,left,0.484899997711,,,,,participant1,26 ,59.8440799461,female,trial,2017_May_24_1609,
,,0.49,"[-4.5, 0]",/sounds/legit/left60.wav,,,,,9,3,318,28,,,,,,,,,,,,,,,left,0.0187339782715,,,,,participant1,26 ,59.8440799461,female,trial,2017_May_24_1609,
,,0.62,"[-4.5, 0]",/sounds/legit/left60.wav,,,,,9,4,319,29,,,,,,,,,,,,,,,left,0.302410840988,,,,,participant1,26 ,59.8440799461,female,trial,2017_May_24_1609,
,,0.23,"[0, 0]",/sounds/legit/equal.wav,,,,,9,5,320,1,,,,,,,,,,,,,,,left,1.28599405289,,,,,participant1,26 ,59.8440799461,female,trial,2017_May_24_1609,
,,0.49,"[4.5, 0]",/sounds/legit/right60.wav,,,,,9,6,321,13,,,,,,,,,,,,,,,right,0.234514951706,,,,,participant1,26 ,59.8440799461,female,trial,2017_May_24_1609,
,,0.23,"[-2.25, 0]",/sounds/legit/left30.wav,,,,,9,7,322,21,,,,,,,,,,,,,,,left,1.93618297577,,,,,participant1,26 ,59.8440799461,female,trial,2017_May_24_1609,
,,0.1,"[-2.25, 0]",/sounds/legit/left30.wav,,,,,9,8,323,20,,,,,,,,,,,,,,,left,0.0997409820557,,,,,participant1,26 ,59.8440799461,female,trial,2017_May_24_1609,
,,0.23,"[2.25, 0]",/sounds/legit/right30.wav,,,,,9,9,324,6,,,,,,,,,,,,,,,right,0.219022989273,,,,,participant1,26 ,59.8440799461,female,trial,2017_May_24_1609,
,,0.62,"[4.5, 0]",/sounds/legit/right60.wav,,,,,9,10,325,14,,,,,,,,,,,,,,,right,0.551713943481,,,,,participant1,26 ,59.8440799461,female,trial,2017_May_24_1609,
,,0.1,"[6.75, 0]",/sounds/legit/right100.wav,,,,,9,11,326,15,,,,,,,,,,,,,,,right,0.201330900192,,,,,participant1,26 ,59.8440799461,female,trial,2017_May_24_1609,
,,0.1,"[-6.75, 0]",/sounds/legit/left100.wav,,,,,9,12,327,30,,,,,,,,,,,,,,,left,0.501290082932,,,,,participant1,26 ,59.8440799461,female,trial,2017_May_24_1609,
,,0.49,"[-6.75, 0]",/sounds/legit/left100.wav,,,,,9,13,328,33,,,,,,,,,,,,,,,left,0.402097940445,,,,,participant1,26 ,59.8440799461,female,trial,2017_May_24_1609,
,,0.49,"[0, 0]",/sounds/legit/equal.wav,,,,,9,14,329,3,,,,,,,,,,,,,,,left,0.636185884476,,,,,participant1,26 ,59.8440799461,female,trial,2017_May_24_1609,
,,0.36,"[6.75, 0]",/sounds/legit/right100.wav,,,,,9,15,330,17,,,,,,,,,,,,,,,left,2.63638401031,,,,,participant1,26 ,59.8440799461,female,trial,2017_May_24_1609,
,,0.36,"[-4.5, 0]",/sounds/legit/left60.wav,,,,,9,16,331,27,,,,,,,,,,,,,,,left,0.634855031967,,,,,participant1,26 ,59.8440799461,female,trial,2017_May_24_1609,
,,0.23,"[-6.75, 0]",/sounds/legit/left100.wav,,,,,9,17,332,31,,,,,,,,,,,,,,,left,0.886233091354,,,,,participant1,26 ,59.8440799461,female,trial,2017_May_24_1609,
,,0.49,"[6.75, 0]",/sounds/legit/right100.wav,,,,,9,18,333,18,,,,,,,,,,,,,,,right,0.13462305069,,,,,participant1,26 ,59.8440799461,female,trial,2017_May_24_1609,
,,0.23,"[4.5, 0]",/sounds/legit/right60.wav,,,,,9,19,334,11,,,,,,,,,,,,,,,right,0.0347650051117,,,,,participant1,26 ,59.8440799461,female,trial,2017_May_24_1609,
,,0.23,"[6.75, 0]",/sounds/legit/right100.wav,,,,,9,20,335,16,,,,,,,,,,,,,,,right,0.0178310871124,,,,,participant1,26 ,59.8440799461,female,trial,2017_May_24_1609,
,,0.62,"[6.75, 0]",/sounds/legit/right100.wav,,,,,9,21,336,19,,,,,,,,,,,,,,,right,0.0343101024628,,,,,participant1,26 ,59.8440799461,female,trial,2017_May_24_1609,
,,0.1,"[4.5, 0]",/sounds/legit/right60.wav,,,,,9,22,337,10,,,,,,,,,,,,,,,right,0.00165796279907,,,,,participant1,26 ,59.8440799461,female,trial,2017_May_24_1609,
,,0.1,"[2.25, 0]",/sounds/legit/right30.wav,,,,,9,23,338,5,,,,,,,,,,,,,,,right,0.0346930027008,,,,,participant1,26 ,59.8440799461,female,trial,2017_May_24_1609,
,,0.62,"[-2.25, 0]",/sounds/legit/left30.wav,,,,,9,24,339,24,,,,,,,,,,,,,,,left,0.26770401001,,,,,participant1,26 ,59.8440799461,female,trial,2017_May_24_1609,
,,0.1,"[-4.5, 0]",/sounds/legit/left60.wav,,,,,9,25,340,25,,,,,,,,,,,,,,,left,0.00171303749084,,,,,participant1,26 ,59.8440799461,female,trial,2017_May_24_1609,
,,0.62,"[0, 0]",/sounds/legit/equal.wav,,,,,9,26,341,4,,,,,,,,,,,,,,,left,0.418541908264,,,,,participant1,26 ,59.8440799461,female,trial,2017_May_24_1609,
,,0.62,"[2.25, 0]",/sounds/legit/right30.wav,,,,,9,27,342,9,,,,,,,,,,,,,,,right,0.269063949585,,,,,participant1,26 ,59.8440799461,female,trial,2017_May_24_1609,
,,0.23,"[-4.5, 0]",/sounds/legit/left60.wav,,,,,9,28,343,26,,,,,,,,,,,,,,,left,0.434144020081,,,,,participant1,26 ,59.8440799461,female,trial,2017_May_24_1609,
,,0.62,"[-6.75, 0]",/sounds/legit/left100.wav,,,,,9,29,344,34,,,,,,,,,,,,,,,left,0.0175440311432,,,,,participant1,26 ,59.8440799461,female,trial,2017_May_24_1609,
,,0.36,"[-6.75, 0]",/sounds/legit/left100.wav,,,,,9,30,345,32,,,,,,,,,,,,,,,left,2.50219893456,,,,,participant1,26 ,59.8440799461,female,trial,2017_May_24_1609,
,,0.1,"[0, 0]",/sounds/legit/equal.wav,,,,,9,31,346,0,,,,,,,,,,,,,,,left,1.60221600533,,,,,participant1,26 ,59.8440799461,female,trial,2017_May_24_1609,
,,0.36,"[0, 0]",/sounds/legit/equal.wav,,,,,9,32,347,2,,,,,,,,,,,,,,,left,0.234698057175,,,,,participant1,26 ,59.8440799461,female,trial,2017_May_24_1609,
,,0.36,"[-2.25, 0]",/sounds/legit/left30.wav,,,,,9,33,348,22,,,,,,,,,,,,,,,left,0.100790977478,,,,,participant1,26 ,59.8440799461,female,trial,2017_May_24_1609,
,,0.49,"[2.25, 0]",/sounds/legit/right30.wav,,,,,9,34,349,8,,,,,,,,,,,,,,,right,0.184714078903,,,,,participant1,26 ,59.8440799461,female,trial,2017_May_24_1609,
,,,,,,,,,,,,,,,,,,,,,,,,,,,,,space,165.322623968,,,participant1,26 ,59.8440799461,female,trial,2017_May_24_1609,
,,0.23,"[-4.5, 0]",/sounds/legit/left60.wav,,,,,,,,,0,0,0,26,,,,,,,,,,,,,,,left,1.23537516594,participant1,26 ,59.8440799461,female,trial,2017_May_24_1609,
,,0.1,"[-2.25, 0]",/sounds/legit/left30.wav,,,,,,,,,0,1,1,20,,,,,,,,,,,,,,,left,0.951902866364,participant1,26 ,59.8440799461,female,trial,2017_May_24_1609,
,,0.1,"[-6.75, 0]",/sounds/legit/left100.wav,,,,,,,,,0,2,2,30,,,,,,,,,,,,,,,left,0.734836101532,participant1,26 ,59.8440799461,female,trial,2017_May_24_1609,
,,0.62,"[4.5, 0]",/sounds/legit/right60.wav,,,,,,,,,0,3,3,14,,,,,,,,,,,,,,,right,0.535524845123,participant1,26 ,59.8440799461,female,trial,2017_May_24_1609,
,,0.36,"[-6.75, 0]",/sounds/legit/left100.wav,,,,,,,,,0,4,4,32,,,,,,,,,,,,,,,left,0.735538005829,participant1,26 ,59.8440799461,female,trial,2017_May_24_1609,
,,0.36,"[0, 0]",/sounds/legit/equal.wav,,,,,,,,,0,5,5,2,,,,,,,,,,,,,,,left,0.51882481575,participant1,26 ,59.8440799461,female,trial,2017_May_24_1609,
,,0.62,"[-4.5, 0]",/sounds/legit/left60.wav,,,,,,,,,0,6,6,29,,,,,,,,,,,,,,,left,0.636042833328,participant1,26 ,59.8440799461,female,trial,2017_May_24_1609,
,,0.23,"[6.75, 0]",/sounds/legit/right100.wav,,,,,,,,,0,7,7,16,,,,,,,,,,,,,,,right,1.0017080307,participant1,26 ,59.8440799461,female,trial,2017_May_24_1609,
,,0.49,"[-4.5, 0]",/sounds/legit/left60.wav,,,,,,,,,0,8,8,28,,,,,,,,,,,,,,,left,0.383778810501,participant1,26 ,59.8440799461,female,trial,2017_May_24_1609,
,,0.62,"[-4.5, 0]",/sounds/legit/left60.wav,,,,,,,,,0,9,9,29,,,,,,,,,,,,,,,left,0.436349868774,participant1,26 ,59.8440799461,female,trial,2017_May_24_1609,
,,0.36,"[4.5, 0]",/sounds/legit/right60.wav,,,,,,,,,0,10,10,12,,,,,,,,,,,,,,,right,0.466421127319,participant1,26 ,59.8440799461,female,trial,2017_May_24_1609,
,,0.23,"[-6.75, 0]",/sounds/legit/left100.wav,,,,,,,,,0,11,11,31,,,,,,,,,,,,,,,left,1.40275406837,participant1,26 ,59.8440799461,female,trial,2017_May_24_1609,
,,0.23,"[2.25, 0]",/sounds/legit/right30.wav,,,,,,,,,0,12,12,6,,,,,,,,,,,,,,,right,0.45176410675,participant1,26 ,59.8440799461,female,trial,2017_May_24_1609,
,,0.1,"[6.75, 0]",/sounds/legit/right100.wav,,,,,,,,,0,13,13,15,,,,,,,,,,,,,,,right,0.41777586937,participant1,26 ,59.8440799461,female,trial,2017_May_24_1609,
,,0.49,"[4.5, 0]",/sounds/legit/right60.wav,,,,,,,,,0,14,14,13,,,,,,,,,,,,,,,right,0.38557600975,participant1,26 ,59.8440799461,female,trial,2017_May_24_1609,
,,0.49,"[6.75, 0]",/sounds/legit/right100.wav,,,,,,,,,0,15,15,18,,,,,,,,,,,,,,,right,0.284605979919,participant1,26 ,59.8440799461,female,trial,2017_May_24_1609,
,,0.36,"[4.5, 0]",/sounds/legit/right60.wav,,,,,,,,,0,16,16,12,,,,,,,,,,,,,,,right,0.201889038086,participant1,26 ,59.8440799461,female,trial,2017_May_24_1609,
,,0.1,"[6.75, 0]",/sounds/legit/right100.wav,,,,,,,,,0,17,17,15,,,,,,,,,,,,,,,right,0.36877989769,participant1,26 ,59.8440799461,female,trial,2017_May_24_1609,
,,0.62,"[-2.25, 0]",/sounds/legit/left30.wav,,,,,,,,,0,18,18,24,,,,,,,,,,,,,,,left,1.98595499992,participant1,26 ,59.8440799461,female,trial,2017_May_24_1609,
,,0.62,"[0, 0]",/sounds/legit/equal.wav,,,,,,,,,0,19,19,4,,,,,,,,,,,,,,,right,0.451416969299,participant1,26 ,59.8440799461,female,trial,2017_May_24_1609,
,,0.23,"[-4.5, 0]",/sounds/legit/left60.wav,,,,,,,,,0,20,20,26,,,,,,,,,,,,,,,left,0.568583011627,participant1,26 ,59.8440799461,female,trial,2017_May_24_1609,
,,0.62,"[4.5, 0]",/sounds/legit/right60.wav,,,,,,,,,0,21,21,14,,,,,,,,,,,,,,,right,0.61830997467,participant1,26 ,59.8440799461,female,trial,2017_May_24_1609,
,,0.36,"[-6.75, 0]",/sounds/legit/left100.wav,,,,,,,,,0,22,22,32,,,,,,,,,,,,,,,left,0.436094999313,participant1,26 ,59.8440799461,female,trial,2017_May_24_1609,
,,0.49,"[4.5, 0]",/sounds/legit/right60.wav,,,,,,,,,0,23,23,13,,,,,,,,,,,,,,,right,0.400955915451,participant1,26 ,59.8440799461,female,trial,2017_May_24_1609,
,,0.1,"[-2.25, 0]",/sounds/legit/left30.wav,,,,,,,,,0,24,24,20,,,,,,,,,,,,,,,left,0.852273225784,participant1,26 ,59.8440799461,female,trial,2017_May_24_1609,
,,0.1,"[4.5, 0]",/sounds/legit/right60.wav,,,,,,,,,0,25,25,10,,,,,,,,,,,,,,,right,0.385142087936,participant1,26 ,59.8440799461,female,trial,2017_May_24_1609,
,,0.36,"[2.25, 0]",/sounds/legit/right30.wav,,,,,,,,,0,26,26,7,,,,,,,,,,,,,,,right,0.502007007599,participant1,26 ,59.8440799461,female,trial,2017_May_24_1609,
,,0.23,"[0, 0]",/sounds/legit/equal.wav,,,,,,,,,0,27,27,1,,,,,,,,,,,,,,,right,0.48565196991,participant1,26 ,59.8440799461,female,trial,2017_May_24_1609,
,,0.1,"[4.5, 0]",/sounds/legit/right60.wav,,,,,,,,,0,28,28,10,,,,,,,,,,,,,,,right,0.485419034958,participant1,26 ,59.8440799461,female,trial,2017_May_24_1609,
,,0.49,"[2.25, 0]",/sounds/legit/right30.wav,,,,,,,,,0,29,29,8,,,,,,,,,,,,,,,right,0.584973096848,participant1,26 ,59.8440799461,female,trial,2017_May_24_1609,
,,0.36,"[6.75, 0]",/sounds/legit/right100.wav,,,,,,,,,0,30,30,17,,,,,,,,,,,,,,,right,0.402134180069,participant1,26 ,59.8440799461,female,trial,2017_May_24_1609,
,,0.23,"[-6.75, 0]",/sounds/legit/left100.wav,,,,,,,,,0,31,31,31,,,,,,,,,,,,,,,left,0.318801879883,participant1,26 ,59.8440799461,female,trial,2017_May_24_1609,
,,0.62,"[2.25, 0]",/sounds/legit/right30.wav,,,,,,,,,0,32,32,9,,,,,,,,,,,,,,,left,0.568822860718,participant1,26 ,59.8440799461,female,trial,2017_May_24_1609,
,,0.1,"[-4.5, 0]",/sounds/legit/left60.wav,,,,,,,,,0,33,33,25,,,,,,,,,,,,,,,left,0.418570995331,participant1,26 ,59.8440799461,female,trial,2017_May_24_1609,
,,0.23,"[6.75, 0]",/sounds/legit/right100.wav,,,,,,,,,0,34,34,16,,,,,,,,,,,,,,,right,0.368212938309,participant1,26 ,59.8440799461,female,trial,2017_May_24_1609,
,,0.23,"[-2.25, 0]",/sounds/legit/left30.wav,,,,,,,,,1,0,35,21,,,,,,,,,,,,,,,left,0.384712934494,participant1,26 ,59.8440799461,female,trial,2017_May_24_1609,
,,0.23,"[-2.25, 0]",/sounds/legit/left30.wav,,,,,,,,,1,1,36,21,,,,,,,,,,,,,,,left,0.518076896667,participant1,26 ,59.8440799461,female,trial,2017_May_24_1609,
,,0.23,"[6.75, 0]",/sounds/legit/right100.wav,,,,,,,,,1,2,37,16,,,,,,,,,,,,,,,right,0.418140172958,participant1,26 ,59.8440799461,female,trial,2017_May_24_1609,
,,0.62,"[2.25, 0]",/sounds/legit/right30.wav,,,,,,,,,1,3,38,9,,,,,,,,,,,,,,,right,0.452253103256,participant1,26 ,59.8440799461,female,trial,2017_May_24_1609,
,,0.36,"[-2.25, 0]",/sounds/legit/left30.wav,,,,,,,,,1,4,39,22,,,,,,,,,,,,,,,left,0.450729846954,participant1,26 ,59.8440799461,female,trial,2017_May_24_1609,
,,0.36,"[2.25, 0]",/sounds/legit/right30.wav,,,,,,,,,1,5,40,7,,,,,,,,,,,,,,,right,0.368499994278,participant1,26 ,59.8440799461,female,trial,2017_May_24_1609,
,,0.36,"[4.5, 0]",/sounds/legit/right60.wav,,,,,,,,,1,6,41,12,,,,,,,,,,,,,,,right,0.584213972092,participant1,26 ,59.8440799461,female,trial,2017_May_24_1609,
,,0.36,"[-6.75, 0]",/sounds/legit/left100.wav,,,,,,,,,1,7,42,32,,,,,,,,,,,,,,,left,0.46927189827,participant1,26 ,59.8440799461,female,trial,2017_May_24_1609,
,,0.49,"[6.75, 0]",/sounds/legit/right100.wav,,,,,,,,,1,8,43,18,,,,,,,,,,,,,,,right,0.385077953339,participant1,26 ,59.8440799461,female,trial,2017_May_24_1609,
,,0.49,"[2.25, 0]",/sounds/legit/right30.wav,,,,,,,,,1,9,44,8,,,,,,,,,,,,,,,left,0.602272033691,participant1,26 ,59.8440799461,female,trial,2017_May_24_1609,
,,0.36,"[4.5, 0]",/sounds/legit/right60.wav,,,,,,,,,1,10,45,12,,,,,,,,,,,,,,,right,0.385619878769,participant1,26 ,59.8440799461,female,trial,2017_May_24_1609,
,,0.49,"[-6.75, 0]",/sounds/legit/left100.wav,,,,,,,,,1,11,46,33,,,,,,,,,,,,,,,left,0.251702070236,participant1,26 ,59.8440799461,female,trial,2017_May_24_1609,
,,0.1,"[0, 0]",/sounds/legit/equal.wav,,,,,,,,,1,12,47,0,,,,,,,,,,,,,,,left,0.334007978439,participant1,26 ,59.8440799461,female,trial,2017_May_24_1609,
,,0.1,"[-6.75, 0]",/sounds/legit/left100.wav,,,,,,,,,1,13,48,30,,,,,,,,,,,,,,,left,0.268174886703,participant1,26 ,59.8440799461,female,trial,2017_May_24_1609,
,,0.23,"[2.25, 0]",/sounds/legit/right30.wav,,,,,,,,,1,14,49,6,,,,,,,,,,,,,,,right,0.351979970932,participant1,26 ,59.8440799461,female,trial,2017_May_24_1609,
,,0.1,"[6.75, 0]",/sounds/legit/right100.wav,,,,,,,,,1,15,50,15,,,,,,,,,,,,,,,left,0.385481834412,participant1,26 ,59.8440799461,female,trial,2017_May_24_1609,
,,0.49,"[0, 0]",/sounds/legit/equal.wav,,,,,,,,,1,16,51,3,,,,,,,,,,,,,,,left,0.284601926804,participant1,26 ,59.8440799461,female,trial,2017_May_24_1609,
,,0.23,"[6.75, 0]",/sounds/legit/right100.wav,,,,,,,,,1,17,52,16,,,,,,,,,,,,,,,right,0.0840330123901,participant1,26 ,59.8440799461,female,trial,2017_May_24_1609,
,,0.49,"[-4.5, 0]",/sounds/legit/left60.wav,,,,,,,,,1,18,53,28,,,,,,,,,,,,,,,left,0.767394065857,participant1,26 ,59.8440799461,female,trial,2017_May_24_1609,
,,0.49,"[-6.75, 0]",/sounds/legit/left100.wav,,,,,,,,,1,19,54,33,,,,,,,,,,,,,,,left,1.21814393997,participant1,26 ,59.8440799461,female,trial,2017_May_24_1609,
,,0.23,"[4.5, 0]",/sounds/legit/right60.wav,,,,,,,,,1,20,55,11,,,,,,,,,,,,,,,right,0.468528032303,participant1,26 ,59.8440799461,female,trial,2017_May_24_1609,
,,0.62,"[-4.5, 0]",/sounds/legit/left60.wav,,,,,,,,,1,21,56,29,,,,,,,,,,,,,,,left,0.386014938354,participant1,26 ,59.8440799461,female,trial,2017_May_24_1609,
,,0.62,"[4.5, 0]",/sounds/legit/right60.wav,,,,,,,,,1,22,57,14,,,,,,,,,,,,,,,right,0.251490116119,participant1,26 ,59.8440799461,female,trial,2017_May_24_1609,
,,0.36,"[-6.75, 0]",/sounds/legit/left100.wav,,,,,,,,,1,23,58,32,,,,,,,,,,,,,,,left,0.0849368572235,participant1,26 ,59.8440799461,female,trial,2017_May_24_1609,
,,0.1,"[2.25, 0]",/sounds/legit/right30.wav,,,,,,,,,1,24,59,5,,,,,,,,,,,,,,,left,0.351238965988,participant1,26 ,59.8440799461,female,trial,2017_May_24_1609,
,,0.36,"[6.75, 0]",/sounds/legit/right100.wav,,,,,,,,,1,25,60,17,,,,,,,,,,,,,,,right,0.369570016861,participant1,26 ,59.8440799461,female,trial,2017_May_24_1609,
,,0.49,"[2.25, 0]",/sounds/legit/right30.wav,,,,,,,,,1,26,61,8,,,,,,,,,,,,,,,left,0.884514808655,participant1,26 ,59.8440799461,female,trial,2017_May_24_1609,
,,0.23,"[0, 0]",/sounds/legit/equal.wav,,,,,,,,,1,27,62,1,,,,,,,,,,,,,,,left,0.368852853775,participant1,26 ,59.8440799461,female,trial,2017_May_24_1609,
,,0.49,"[-4.5, 0]",/sounds/legit/left60.wav,,,,,,,,,1,28,63,28,,,,,,,,,,,,,,,left,0.51925611496,participant1,26 ,59.8440799461,female,trial,2017_May_24_1609,
,,0.23,"[2.25, 0]",/sounds/legit/right30.wav,,,,,,,,,1,29,64,6,,,,,,,,,,,,,,,right,0.268450975418,participant1,26 ,59.8440799461,female,trial,2017_May_24_1609,
,,0.49,"[-6.75, 0]",/sounds/legit/left100.wav,,,,,,,,,1,30,65,33,,,,,,,,,,,,,,,left,0.302252054214,participant1,26 ,59.8440799461,female,trial,2017_May_24_1609,
,,0.62,"[-6.75, 0]",/sounds/legit/left100.wav,,,,,,,,,1,31,66,34,,,,,,,,,,,,,,,left,0.284928798676,participant1,26 ,59.8440799461,female,trial,2017_May_24_1609,
,,0.49,"[4.5, 0]",/sounds/legit/right60.wav,,,,,,,,,1,32,67,13,,,,,,,,,,,,,,,right,0.368350982666,participant1,26 ,59.8440799461,female,trial,2017_May_24_1609,
,,0.49,"[-2.25, 0]",/sounds/legit/left30.wav,,,,,,,,,1,33,68,23,,,,,,,,,,,,,,,left,0.485213041306,participant1,26 ,59.8440799461,female,trial,2017_May_24_1609,
,,0.49,"[-6.75, 0]",/sounds/legit/left100.wav,,,,,,,,,1,34,69,33,,,,,,,,,,,,,,,left,0.735464096069,participant1,26 ,59.8440799461,female,trial,2017_May_24_1609,
,,0.23,"[0, 0]",/sounds/legit/equal.wav,,,,,,,,,2,0,70,1,,,,,,,,,,,,,,,left,0.368145942688,participant1,26 ,59.8440799461,female,trial,2017_May_24_1609,
,,0.49,"[-2.25, 0]",/sounds/legit/left30.wav,,,,,,,,,2,1,71,23,,,,,,,,,,,,,,,left,0.468724012375,participant1,26 ,59.8440799461,female,trial,2017_May_24_1609,
,,0.36,"[-4.5, 0]",/sounds/legit/left60.wav,,,,,,,,,2,2,72,27,,,,,,,,,,,,,,,left,0.451830863953,participant1,26 ,59.8440799461,female,trial,2017_May_24_1609,
,,0.49,"[2.25, 0]",/sounds/legit/right30.wav,,,,,,,,,2,3,73,8,,,,,,,,,,,,,,,right,0.20185303688,participant1,26 ,59.8440799461,female,trial,2017_May_24_1609,
,,0.36,"[-4.5, 0]",/sounds/legit/left60.wav,,,,,,,,,2,4,74,27,,,,,,,,,,,,,,,left,0.535141944885,participant1,26 ,59.8440799461,female,trial,2017_May_24_1609,
,,0.62,"[-6.75, 0]",/sounds/legit/left100.wav,,,,,,,,,2,5,75,34,,,,,,,,,,,,,,,left,0.468768119812,participant1,26 ,59.8440799461,female,trial,2017_May_24_1609,
,,0.62,"[-4.5, 0]",/sounds/legit/left60.wav,,,,,,,,,2,6,76,29,,,,,,,,,,,,,,,left,0.485860109329,participant1,26 ,59.8440799461,female,trial,2017_May_24_1609,
,,0.62,"[-6.75, 0]",/sounds/legit/left100.wav,,,,,,,,,2,7,77,34,,,,,,,,,,,,,,,left,0.618216991425,participant1,26 ,59.8440799461,female,trial,2017_May_24_1609,
,,0.23,"[2.25, 0]",/sounds/legit/right30.wav,,,,,,,,,2,8,78,6,,,,,,,,,,,,,,,right,0.451932907104,participant1,26 ,59.8440799461,female,trial,2017_May_24_1609,
,,0.1,"[4.5, 0]",/sounds/legit/right60.wav,,,,,,,,,2,9,79,10,,,,,,,,,,,,,,,right,0.402010202408,participant1,26 ,59.8440799461,female,trial,2017_May_24_1609,
,,0.23,"[-6.75, 0]",/sounds/legit/left100.wav,,,,,,,,,2,10,80,31,,,,,,,,,,,,,,,left,0.101431131363,participant1,26 ,59.8440799461,female,trial,2017_May_24_1609,
,,0.62,"[0, 0]",/sounds/legit/equal.wav,,,,,,,,,2,11,81,4,,,,,,,,,,,,,,,left,0.568449020386,participant1,26 ,59.8440799461,female,trial,2017_May_24_1609,
,,0.36,"[-6.75, 0]",/sounds/legit/left100.wav,,,,,,,,,2,12,82,32,,,,,,,,,,,,,,,left,0.218973875046,participant1,26 ,59.8440799461,female,trial,2017_May_24_1609,
,,0.62,"[-4.5, 0]",/sounds/legit/left60.wav,,,,,,,,,2,13,83,29,,,,,,,,,,,,,,,left,0.268498897552,participant1,26 ,59.8440799461,female,trial,2017_May_24_1609,
,,0.49,"[-6.75, 0]",/sounds/legit/left100.wav,,,,,,,,,2,14,84,33,,,,,,,,,,,,,,,left,0.00175881385803,participant1,26 ,59.8440799461,female,trial,2017_May_24_1609,
,,0.23,"[0, 0]",/sounds/legit/equal.wav,,,,,,,,,2,15,85,1,,,,,,,,,,,,,,,left,0.385129928589,participant1,26 ,59.8440799461,female,trial,2017_May_24_1609,
,,0.36,"[-2.25, 0]",/sounds/legit/left30.wav,,,,,,,,,2,16,86,22,,,,,,,,,,,,,,,left,0.451529026031,participant1,26 ,59.8440799461,female,trial,2017_May_24_1609,
,,0.49,"[-4.5, 0]",/sounds/legit/left60.wav,,,,,,,,,2,17,87,28,,,,,,,,,,,,,,,left,0.401768922806,participant1,26 ,59.8440799461,female,trial,2017_May_24_1609,
,,0.49,"[4.5, 0]",/sounds/legit/right60.wav,,,,,,,,,2,18,88,13,,,,,,,,,,,,,,,left,0.685600996017,participant1,26 ,59.8440799461,female,trial,2017_May_24_1609,
,,0.36,"[6.75, 0]",/sounds/legit/right100.wav,,,,,,,,,2,19,89,17,,,,,,,,,,,,,,,right,0.418004989624,participant1,26 ,59.8440799461,female,trial,2017_May_24_1609,
,,0.23,"[-6.75, 0]",/sounds/legit/left100.wav,,,,,,,,,2,20,90,31,,,,,,,,,,,,,,,left,0.485429048538,participant1,26 ,59.8440799461,female,trial,2017_May_24_1609,
,,0.23,"[-6.75, 0]",/sounds/legit/left100.wav,,,,,,,,,2,21,91,31,,,,,,,,,,,,,,,left,0.301699876785,participant1,26 ,59.8440799461,female,trial,2017_May_24_1609,
,,0.62,"[-6.75, 0]",/sounds/legit/left100.wav,,,,,,,,,2,22,92,34,,,,,,,,,,,,,,,left,0.33460187912,participant1,26 ,59.8440799461,female,trial,2017_May_24_1609,
,,0.1,"[6.75, 0]",/sounds/legit/right100.wav,,,,,,,,,2,23,93,15,,,,,,,,,,,,,,,right,0.201766014099,participant1,26 ,59.8440799461,female,trial,2017_May_24_1609,
,,0.49,"[-4.5, 0]",/sounds/legit/left60.wav,,,,,,,,,2,24,94,28,,,,,,,,,,,,,,,left,0.683863162994,participant1,26 ,59.8440799461,female,trial,2017_May_24_1609,
,,0.1,"[4.5, 0]",/sounds/legit/right60.wav,,,,,,,,,2,25,95,10,,,,,,,,,,,,,,,right,0.302114963531,participant1,26 ,59.8440799461,female,trial,2017_May_24_1609,
,,0.62,"[0, 0]",/sounds/legit/equal.wav,,,,,,,,,2,26,96,4,,,,,,,,,,,,,,,left,0.169136047363,participant1,26 ,59.8440799461,female,trial,2017_May_24_1609,
,,0.1,"[0, 0]",/sounds/legit/equal.wav,,,,,,,,,2,27,97,0,,,,,,,,,,,,,,,left,0.268780946732,participant1,26 ,59.8440799461,female,trial,2017_May_24_1609,
,,0.36,"[-6.75, 0]",/sounds/legit/left100.wav,,,,,,,,,2,28,98,32,,,,,,,,,,,,,,,left,0.317759990692,participant1,26 ,59.8440799461,female,trial,2017_May_24_1609,
,,0.23,"[2.25, 0]",/sounds/legit/right30.wav,,,,,,,,,2,29,99,6,,,,,,,,,,,,,,,right,0.0682711601257,participant1,26 ,59.8440799461,female,trial,2017_May_24_1609,
,,0.23,"[-2.25, 0]",/sounds/legit/left30.wav,,,,,,,,,2,30,100,21,,,,,,,,,,,,,,,left,1.10160899162,participant1,26 ,59.8440799461,female,trial,2017_May_24_1609,
,,0.1,"[-6.75, 0]",/sounds/legit/left100.wav,,,,,,,,,2,31,101,30,,,,,,,,,,,,,,,left,0.384471893311,participant1,26 ,59.8440799461,female,trial,2017_May_24_1609,
,,0.23,"[6.75, 0]",/sounds/legit/right100.wav,,,,,,,,,2,32,102,16,,,,,,,,,,,,,,,left,0.585476160049,participant1,26 ,59.8440799461,female,trial,2017_May_24_1609,
,,0.1,"[0, 0]",/sounds/legit/equal.wav,,,,,,,,,2,33,103,0,,,,,,,,,,,,,,,left,0.31768989563,participant1,26 ,59.8440799461,female,trial,2017_May_24_1609,
,,0.36,"[-2.25, 0]",/sounds/legit/left30.wav,,,,,,,,,2,34,104,22,,,,,,,,,,,,,,,left,0.385316848755,participant1,26 ,59.8440799461,female,trial,2017_May_24_1609,
,,0.62,"[-6.75, 0]",/sounds/legit/left100.wav,,,,,,,,,3,0,105,34,,,,,,,,,,,,,,,left,0.100778102875,participant1,26 ,59.8440799461,female,trial,2017_May_24_1609,
,,0.49,"[0, 0]",/sounds/legit/equal.wav,,,,,,,,,3,1,106,3,,,,,,,,,,,,,,,left,0.568655967712,participant1,26 ,59.8440799461,female,trial,2017_May_24_1609,
,,0.36,"[-2.25, 0]",/sounds/legit/left30.wav,,,,,,,,,3,2,107,22,,,,,,,,,,,,,,,left,0.334893941879,participant1,26 ,59.8440799461,female,trial,2017_May_24_1609,
,,0.23,"[2.25, 0]",/sounds/legit/right30.wav,,,,,,,,,3,3,108,6,,,,,,,,,,,,,,,right,0.184214830399,participant1,26 ,59.8440799461,female,trial,2017_May_24_1609,
,,0.62,"[-2.25, 0]",/sounds/legit/left30.wav,,,,,,,,,3,4,109,24,,,,,,,,,,,,,,,left,0.319023132324,participant1,26 ,59.8440799461,female,trial,2017_May_24_1609,
,,0.49,"[-6.75, 0]",/sounds/legit/left100.wav,,,,,,,,,3,5,110,33,,,,,,,,,,,,,,,left,0.28428196907,participant1,26 ,59.8440799461,female,trial,2017_May_24_1609,
,,0.49,"[2.25, 0]",/sounds/legit/right30.wav,,,,,,,,,3,6,111,8,,,,,,,,,,,,,,,left,0.285429954529,participant1,26 ,59.8440799461,female,trial,2017_May_24_1609,
,,0.62,"[-6.75, 0]",/sounds/legit/left100.wav,,,,,,,,,3,7,112,34,,,,,,,,,,,,,,,left,0.135504961014,participant1,26 ,59.8440799461,female,trial,2017_May_24_1609,
,,0.49,"[0, 0]",/sounds/legit/equal.wav,,,,,,,,,3,8,113,3,,,,,,,,,,,,,,,left,0.201912164688,participant1,26 ,59.8440799461,female,trial,2017_May_24_1609,
,,0.23,"[2.25, 0]",/sounds/legit/right30.wav,,,,,,,,,3,9,114,6,,,,,,,,,,,,,,,left,0.234879016876,participant1,26 ,59.8440799461,female,trial,2017_May_24_1609,
,,0.62,"[-4.5, 0]",/sounds/legit/left60.wav,,,,,,,,,3,10,115,29,,,,,,,,,,,,,,,left,0.185302019119,participant1,26 ,59.8440799461,female,trial,2017_May_24_1609,
,,0.49,"[4.5, 0]",/sounds/legit/right60.wav,,,,,,,,,3,11,116,13,,,,,,,,,,,,,,,right,0.418257951736,participant1,26 ,59.8440799461,female,trial,2017_May_24_1609,
,,0.62,"[0, 0]",/sounds/legit/equal.wav,,,,,,,,,3,12,117,4,,,,,,,,,,,,,,,left,0.16934299469,participant1,26 ,59.8440799461,female,trial,2017_May_24_1609,
,,0.1,"[6.75, 0]",/sounds/legit/right100.wav,,,,,,,,,3,13,118,15,,,,,,,,,,,,,,,right,0.2013630867,participant1,26 ,59.8440799461,female,trial,2017_May_24_1609,
,,0.1,"[2.25, 0]",/sounds/legit/right30.wav,,,,,,,,,3,14,119,5,,,,,,,,,,,,,,,right,0.0848579406738,participant1,26 ,59.8440799461,female,trial,2017_May_24_1609,
,,0.62,"[0, 0]",/sounds/legit/equal.wav,,,,,,,,,3,15,120,4,,,,,,,,,,,,,,,left,0.184786081314,participant1,26 ,59.8440799461,female,trial,2017_May_24_1609,
,,0.36,"[6.75, 0]",/sounds/legit/right100.wav,,,,,,,,,3,16,121,17,,,,,,,,,,,,,,,right,0.101649999619,participant1,26 ,59.8440799461,female,trial,2017_May_24_1609,
,,0.23,"[4.5, 0]",/sounds/legit/right60.wav,,,,,,,,,3,17,122,11,,,,,,,,,,,,,,,right,0.151647090912,participant1,26 ,59.8440799461,female,trial,2017_May_24_1609,
,,0.36,"[4.5, 0]",/sounds/legit/right60.wav,,,,,,,,,3,18,123,12,,,,,,,,,,,,,,,right,0.233794927597,participant1,26 ,59.8440799461,female,trial,2017_May_24_1609,
,,0.62,"[-2.25, 0]",/sounds/legit/left30.wav,,,,,,,,,3,19,124,24,,,,,,,,,,,,,,,left,0.151355981827,participant1,26 ,59.8440799461,female,trial,2017_May_24_1609,
,,0.23,"[4.5, 0]",/sounds/legit/right60.wav,,,,,,,,,3,20,125,11,,,,,,,,,,,,,,,left,0.751217126846,participant1,26 ,59.8440799461,female,trial,2017_May_24_1609,
,,0.36,"[-6.75, 0]",/sounds/legit/left100.wav,,,,,,,,,3,21,126,32,,,,,,,,,,,,,,,left,0.284400939941,participant1,26 ,59.8440799461,female,trial,2017_May_24_1609,
,,0.62,"[6.75, 0]",/sounds/legit/right100.wav,,,,,,,,,3,22,127,19,,,,,,,,,,,,,,,right,0.235090970993,participant1,26 ,59.8440799461,female,trial,2017_May_24_1609,
,,0.1,"[4.5, 0]",/sounds/legit/right60.wav,,,,,,,,,3,23,128,10,,,,,,,,,,,,,,,right,0.251397132874,participant1,26 ,59.8440799461,female,trial,2017_May_24_1609,
,,0.1,"[6.75, 0]",/sounds/legit/right100.wav,,,,,,,,,3,24,129,15,,,,,,,,,,,,,,,right,0.0509808063507,participant1,26 ,59.8440799461,female,trial,2017_May_24_1609,
,,0.62,"[-4.5, 0]",/sounds/legit/left60.wav,,,,,,,,,3,25,130,29,,,,,,,,,,,,,,,left,0.235036849976,participant1,26 ,59.8440799461,female,trial,2017_May_24_1609,
,,0.49,"[0, 0]",/sounds/legit/equal.wav,,,,,,,,,3,26,131,3,,,,,,,,,,,,,,,left,0.351894140244,participant1,26 ,59.8440799461,female,trial,2017_May_24_1609,
,,0.36,"[0, 0]",/sounds/legit/equal.wav,,,,,,,,,3,27,132,2,,,,,,,,,,,,,,,left,0.218312978745,participant1,26 ,59.8440799461,female,trial,2017_May_24_1609,
,,0.36,"[4.5, 0]",/sounds/legit/right60.wav,,,,,,,,,3,28,133,12,,,,,,,,,,,,,,,left,0.385720014572,participant1,26 ,59.8440799461,female,trial,2017_May_24_1609,
,,0.1,"[-4.5, 0]",/sounds/legit/left60.wav,,,,,,,,,3,29,134,25,,,,,,,,,,,,,,,left,0.168603181839,participant1,26 ,59.8440799461,female,trial,2017_May_24_1609,
,,0.49,"[-4.5, 0]",/sounds/legit/left60.wav,,,,,,,,,3,30,135,28,,,,,,,,,,,,,,,left,0.218523979187,participant1,26 ,59.8440799461,female,trial,2017_May_24_1609,
,,0.49,"[6.75, 0]",/sounds/legit/right100.wav,,,,,,,,,3,31,136,18,,,,,,,,,,,,,,,right,0.101604223251,participant1,26 ,59.8440799461,female,trial,2017_May_24_1609,
,,0.62,"[-4.5, 0]",/sounds/legit/left60.wav,,,,,,,,,3,32,137,29,,,,,,,,,,,,,,,left,0.201980829239,participant1,26 ,59.8440799461,female,trial,2017_May_24_1609,
,,0.62,"[-2.25, 0]",/sounds/legit/left30.wav,,,,,,,,,3,33,138,24,,,,,,,,,,,,,,,left,0.317733049393,participant1,26 ,59.8440799461,female,trial,2017_May_24_1609,
,,0.23,"[-2.25, 0]",/sounds/legit/left30.wav,,,,,,,,,3,34,139,21,,,,,,,,,,,,,,,left,0.318098068237,participant1,26 ,59.8440799461,female,trial,2017_May_24_1609,
,,0.23,"[4.5, 0]",/sounds/legit/right60.wav,,,,,,,,,4,0,140,11,,,,,,,,,,,,,,,right,0.25191783905,participant1,26 ,59.8440799461,female,trial,2017_May_24_1609,
,,0.36,"[-2.25, 0]",/sounds/legit/left30.wav,,,,,,,,,4,1,141,22,,,,,,,,,,,,,,,left,0.969218969345,participant1,26 ,59.8440799461,female,trial,2017_May_24_1609,
,,0.36,"[2.25, 0]",/sounds/legit/right30.wav,,,,,,,,,4,2,142,7,,,,,,,,,,,,,,,right,0.234631061554,participant1,26 ,59.8440799461,female,trial,2017_May_24_1609,
,,0.36,"[-4.5, 0]",/sounds/legit/left60.wav,,,,,,,,,4,3,143,27,,,,,,,,,,,,,,,left,0.0190010070801,participant1,26 ,59.8440799461,female,trial,2017_May_24_1609,
,,0.62,"[2.25, 0]",/sounds/legit/right30.wav,,,,,,,,,4,4,144,9,,,,,,,,,,,,,,,left,0.385059118271,participant1,26 ,59.8440799461,female,trial,2017_May_24_1609,
,,0.49,"[2.25, 0]",/sounds/legit/right30.wav,,,,,,,,,4,5,145,8,,,,,,,,,,,,,,,left,0.218193054199,participant1,26 ,59.8440799461,female,trial,2017_May_24_1609,
,,0.1,"[0, 0]",/sounds/legit/equal.wav,,,,,,,,,4,6,146,0,,,,,,,,,,,,,,,left,0.150825977325,participant1,26 ,59.8440799461,female,trial,2017_May_24_1609,
,,0.1,"[-2.25, 0]",/sounds/legit/left30.wav,,,,,,,,,4,7,147,20,,,,,,,,,,,,,,,left,0.268490076065,participant1,26 ,59.8440799461,female,trial,2017_May_24_1609,
,,0.49,"[-4.5, 0]",/sounds/legit/left60.wav,,,,,,,,,4,8,148,28,,,,,,,,,,,,,,,left,0.218795061111,participant1,26 ,59.8440799461,female,trial,2017_May_24_1609,
,,0.36,"[6.75, 0]",/sounds/legit/right100.wav,,,,,,,,,4,9,149,17,,,,,,,,,,,,,,,right,0.217711925507,participant1,26 ,59.8440799461,female,trial,2017_May_24_1609,
,,0.1,"[4.5, 0]",/sounds/legit/right60.wav,,,,,,,,,4,10,150,10,,,,,,,,,,,,,,,left,0.251571893692,participant1,26 ,59.8440799461,female,trial,2017_May_24_1609,
,,0.36,"[6.75, 0]",/sounds/legit/right100.wav,,,,,,,,,4,11,151,17,,,,,,,,,,,,,,,right,0.167955875397,participant1,26 ,59.8440799461,female,trial,2017_May_24_1609,
,,0.62,"[0, 0]",/sounds/legit/equal.wav,,,,,,,,,4,12,152,4,,,,,,,,,,,,,,,left,0.185029983521,participant1,26 ,59.8440799461,female,trial,2017_May_24_1609,
,,0.62,"[2.25, 0]",/sounds/legit/right30.wav,,,,,,,,,4,13,153,9,,,,,,,,,,,,,,,right,0.151886940002,participant1,26 ,59.8440799461,female,trial,2017_May_24_1609,
,,0.36,"[6.75, 0]",/sounds/legit/right100.wav,,,,,,,,,4,14,154,17,,,,,,,,,,,,,,,right,0.152048110962,participant1,26 ,59.8440799461,female,trial,2017_May_24_1609,
,,0.23,"[4.5, 0]",/sounds/legit/right60.wav,,,,,,,,,4,15,155,11,,,,,,,,,,,,,,,right,0.0850279331207,participant1,26 ,59.8440799461,female,trial,2017_May_24_1609,
,,0.62,"[-6.75, 0]",/sounds/legit/left100.wav,,,,,,,,,4,16,156,34,,,,,,,,,,,,,,,left,0.15158700943,participant1,26 ,59.8440799461,female,trial,2017_May_24_1609,
,,0.49,"[-2.25, 0]",/sounds/legit/left30.wav,,,,,,,,,4,17,157,23,,,,,,,,,,,,,,,left,0.234544992447,participant1,26 ,59.8440799461,female,trial,2017_May_24_1609,
,,0.1,"[0, 0]",/sounds/legit/equal.wav,,,,,,,,,4,18,158,0,,,,,,,,,,,,,,,right,0.135306119919,participant1,26 ,59.8440799461,female,trial,2017_May_24_1609,
,,0.1,"[-6.75, 0]",/sounds/legit/left100.wav,,,,,,,,,4,19,159,30,,,,,,,,,,,,,,,left,0.117593050003,participant1,26 ,59.8440799461,female,trial,2017_May_24_1609,
,,0.23,"[-4.5, 0]",/sounds/legit/left60.wav,,,,,,,,,4,20,160,26,,,,,,,,,,,,,,,left,0.00154900550842,participant1,26 ,59.8440799461,female,trial,2017_May_24_1609,
,,0.1,"[-4.5, 0]",/sounds/legit/left60.wav,,,,,,,,,4,21,161,25,,,,,,,,,,,,,,,left,0.0350048542023,participant1,26 ,59.8440799461,female,trial,2017_May_24_1609,
,,0.1,"[0, 0]",/sounds/legit/equal.wav,,,,,,,,,4,22,162,0,,,,,,,,,,,,,,,left,0.235604763031,participant1,26 ,59.8440799461,female,trial,2017_May_24_1609,
,,0.1,"[-4.5, 0]",/sounds/legit/left60.wav,,,,,,,,,4,23,163,25,,,,,,,,,,,,,,,left,0.135022163391,participant1,26 ,59.8440799461,female,trial,2017_May_24_1609,
,,0.23,"[-2.25, 0]",/sounds/legit/left30.wav,,,,,,,,,4,24,164,21,,,,,,,,,,,,,,,left,0.0680749416351,participant1,26 ,59.8440799461,female,trial,2017_May_24_1609,
,,0.1,"[6.75, 0]",/sounds/legit/right100.wav,,,,,,,,,4,25,165,15,,,,,,,,,,,,,,,right,0.819304943085,participant1,26 ,59.8440799461,female,trial,2017_May_24_1609,
,,0.1,"[2.25, 0]",/sounds/legit/right30.wav,,,,,,,,,4,26,166,5,,,,,,,,,,,,,,,right,0.317559957504,participant1,26 ,59.8440799461,female,trial,2017_May_24_1609,
,,0.36,"[-4.5, 0]",/sounds/legit/left60.wav,,,,,,,,,4,27,167,27,,,,,,,,,,,,,,,left,0.100377082825,participant1,26 ,59.8440799461,female,trial,2017_May_24_1609,
,,0.36,"[-4.5, 0]",/sounds/legit/left60.wav,,,,,,,,,4,28,168,27,,,,,,,,,,,,,,,left,0.15184211731,participant1,26 ,59.8440799461,female,trial,2017_May_24_1609,
,,0.23,"[-2.25, 0]",/sounds/legit/left30.wav,,,,,,,,,4,29,169,21,,,,,,,,,,,,,,,left,0.185487031937,participant1,26 ,59.8440799461,female,trial,2017_May_24_1609,
,,0.36,"[2.25, 0]",/sounds/legit/right30.wav,,,,,,,,,4,30,170,7,,,,,,,,,,,,,,,right,0.217800855637,participant1,26 ,59.8440799461,female,trial,2017_May_24_1609,
,,0.23,"[-4.5, 0]",/sounds/legit/left60.wav,,,,,,,,,4,31,171,26,,,,,,,,,,,,,,,left,0.868360042572,participant1,26 ,59.8440799461,female,trial,2017_May_24_1609,
,,0.1,"[2.25, 0]",/sounds/legit/right30.wav,,,,,,,,,4,32,172,5,,,,,,,,,,,,,,,left,0.285776138306,participant1,26 ,59.8440799461,female,trial,2017_May_24_1609,
,,0.23,"[0, 0]",/sounds/legit/equal.wav,,,,,,,,,4,33,173,1,,,,,,,,,,,,,,,left,0.251796960831,participant1,26 ,59.8440799461,female,trial,2017_May_24_1609,
,,0.23,"[-6.75, 0]",/sounds/legit/left100.wav,,,,,,,,,4,34,174,31,,,,,,,,,,,,,,,left,0.251477003098,participant1,26 ,59.8440799461,female,trial,2017_May_24_1609,
,,0.36,"[0, 0]",/sounds/legit/equal.wav,,,,,,,,,5,0,175,2,,,,,,,,,,,,,,,left,0.168981075287,participant1,26 ,59.8440799461,female,trial,2017_May_24_1609,
,,0.62,"[2.25, 0]",/sounds/legit/right30.wav,,,,,,,,,5,1,176,9,,,,,,,,,,,,,,,left,0.318690061569,participant1,26 ,59.8440799461,female,trial,2017_May_24_1609,
,,0.23,"[-2.25, 0]",/sounds/legit/left30.wav,,,,,,,,,5,2,177,21,,,,,,,,,,,,,,,left,0.0854542255402,participant1,26 ,59.8440799461,female,trial,2017_May_24_1609,
,,0.49,"[2.25, 0]",/sounds/legit/right30.wav,,,,,,,,,5,3,178,8,,,,,,,,,,,,,,,left,0.235008955002,participant1,26 ,59.8440799461,female,trial,2017_May_24_1609,
,,0.23,"[-4.5, 0]",/sounds/legit/left60.wav,,,,,,,,,5,4,179,26,,,,,,,,,,,,,,,left,0.201761960983,participant1,26 ,59.8440799461,female,trial,2017_May_24_1609,
,,0.23,"[-2.25, 0]",/sounds/legit/left30.wav,,,,,,,,,5,5,180,21,,,,,,,,,,,,,,,left,0.150960922241,participant1,26 ,59.8440799461,female,trial,2017_May_24_1609,
,,0.49,"[-4.5, 0]",/sounds/legit/left60.wav,,,,,,,,,5,6,181,28,,,,,,,,,,,,,,,left,0.234876155853,participant1,26 ,59.8440799461,female,trial,2017_May_24_1609,
,,0.1,"[0, 0]",/sounds/legit/equal.wav,,,,,,,,,5,7,182,0,,,,,,,,,,,,,,,left,0.168724775314,participant1,26 ,59.8440799461,female,trial,2017_May_24_1609,
,,0.1,"[2.25, 0]",/sounds/legit/right30.wav,,,,,,,,,5,8,183,5,,,,,,,,,,,,,,,right,1.15274596214,participant1,26 ,59.8440799461,female,trial,2017_May_24_1609,
,,0.23,"[6.75, 0]",/sounds/legit/right100.wav,,,,,,,,,5,9,184,16,,,,,,,,,,,,,,,right,0.284638881683,participant1,26 ,59.8440799461,female,trial,2017_May_24_1609,
,,0.36,"[-6.75, 0]",/sounds/legit/left100.wav,,,,,,,,,5,10,185,32,,,,,,,,,,,,,,,left,0.418210983276,participant1,26 ,59.8440799461,female,trial,2017_May_24_1609,
,,0.62,"[2.25, 0]",/sounds/legit/right30.wav,,,,,,,,,5,11,186,9,,,,,,,,,,,,,,,left,0.500920057297,participant1,26 ,59.8440799461,female,trial,2017_May_24_1609,
,,0.23,"[0, 0]",/sounds/legit/equal.wav,,,,,,,,,5,12,187,1,,,,,,,,,,,,,,,left,0.369120121002,participant1,26 ,59.8440799461,female,trial,2017_May_24_1609,
,,0.36,"[0, 0]",/sounds/legit/equal.wav,,,,,,,,,5,13,188,2,,,,,,,,,,,,,,,left,0.385295152664,participant1,26 ,59.8440799461,female,trial,2017_May_24_1609,
,,0.62,"[6.75, 0]",/sounds/legit/right100.wav,,,,,,,,,5,14,189,19,,,,,,,,,,,,,,,right,0.202064990997,participant1,26 ,59.8440799461,female,trial,2017_May_24_1609,
,,0.1,"[-4.5, 0]",/sounds/legit/left60.wav,,,,,,,,,5,15,190,25,,,,,,,,,,,,,,,left,0.535232067108,participant1,26 ,59.8440799461,female,trial,2017_May_24_1609,
,,0.23,"[-6.75, 0]",/sounds/legit/left100.wav,,,,,,,,,5,16,191,31,,,,,,,,,,,,,,,left,0.300806999207,participant1,26 ,59.8440799461,female,trial,2017_May_24_1609,
,,0.36,"[-4.5, 0]",/sounds/legit/left60.wav,,,,,,,,,5,17,192,27,,,,,,,,,,,,,,,left,0.384700059891,participant1,26 ,59.8440799461,female,trial,2017_May_24_1609,
,,0.1,"[-4.5, 0]",/sounds/legit/left60.wav,,,,,,,,,5,18,193,25,,,,,,,,,,,,,,,left,0.40201997757,participant1,26 ,59.8440799461,female,trial,2017_May_24_1609,
,,0.23,"[4.5, 0]",/sounds/legit/right60.wav,,,,,,,,,5,19,194,11,,,,,,,,,,,,,,,right,0.302042007446,participant1,26 ,59.8440799461,female,trial,2017_May_24_1609,
,,0.49,"[6.75, 0]",/sounds/legit/right100.wav,,,,,,,,,5,20,195,18,,,,,,,,,,,,,,,right,0.402168035507,participant1,26 ,59.8440799461,female,trial,2017_May_24_1609,
,,0.23,"[4.5, 0]",/sounds/legit/right60.wav,,,,,,,,,5,21,196,11,,,,,,,,,,,,,,,right,0.435269117355,participant1,26 ,59.8440799461,female,trial,2017_May_24_1609,
,,0.62,"[6.75, 0]",/sounds/legit/right100.wav,,,,,,,,,5,22,197,19,,,,,,,,,,,,,,,right,0.31828379631,participant1,26 ,59.8440799461,female,trial,2017_May_24_1609,
,,0.1,"[-2.25, 0]",/sounds/legit/left30.wav,,,,,,,,,5,23,198,20,,,,,,,,,,,,,,,left,0.38512802124,participant1,26 ,59.8440799461,female,trial,2017_May_24_1609,
,,0.62,"[6.75, 0]",/sounds/legit/right100.wav,,,,,,,,,5,24,199,19,,,,,,,,,,,,,,,right,0.452636003494,participant1,26 ,59.8440799461,female,trial,2017_May_24_1609,
,,0.62,"[6.75, 0]",/sounds/legit/right100.wav,,,,,,,,,5,25,200,19,,,,,,,,,,,,,,,right,0.185545921326,participant1,26 ,59.8440799461,female,trial,2017_May_24_1609,
,,0.49,"[0, 0]",/sounds/legit/equal.wav,,,,,,,,,5,26,201,3,,,,,,,,,,,,,,,left,0.368324041367,participant1,26 ,59.8440799461,female,trial,2017_May_24_1609,
,,0.1,"[-6.75, 0]",/sounds/legit/left100.wav,,,,,,,,,5,27,202,30,,,,,,,,,,,,,,,left,0.367815971375,participant1,26 ,59.8440799461,female,trial,2017_May_24_1609,
,,0.49,"[4.5, 0]",/sounds/legit/right60.wav,,,,,,,,,5,28,203,13,,,,,,,,,,,,,,,right,0.184693098068,participant1,26 ,59.8440799461,female,trial,2017_May_24_1609,
,,0.36,"[-2.25, 0]",/sounds/legit/left30.wav,,,,,,,,,5,29,204,22,,,,,,,,,,,,,,,left,0.167712211609,participant1,26 ,59.8440799461,female,trial,2017_May_24_1609,
,,0.1,"[6.75, 0]",/sounds/legit/right100.wav,,,,,,,,,5,30,205,15,,,,,,,,,,,,,,,right,0.100759029388,participant1,26 ,59.8440799461,female,trial,2017_May_24_1609,
,,0.62,"[6.75, 0]",/sounds/legit/right100.wav,,,,,,,,,5,31,206,19,,,,,,,,,,,,,,,right,0.00031590461731,participant1,26 ,59.8440799461,female,trial,2017_May_24_1609,
,,0.49,"[-2.25, 0]",/sounds/legit/left30.wav,,,,,,,,,5,32,207,23,,,,,,,,,,,,,,,left,0.234389066696,participant1,26 ,59.8440799461,female,trial,2017_May_24_1609,
,,0.36,"[4.5, 0]",/sounds/legit/right60.wav,,,,,,,,,5,33,208,12,,,,,,,,,,,,,,,right,0.252519845963,participant1,26 ,59.8440799461,female,trial,2017_May_24_1609,
,,0.62,"[2.25, 0]",/sounds/legit/right30.wav,,,,,,,,,5,34,209,9,,,,,,,,,,,,,,,left,0.0515999794006,participant1,26 ,59.8440799461,female,trial,2017_May_24_1609,
,,0.62,"[4.5, 0]",/sounds/legit/right60.wav,,,,,,,,,6,0,210,14,,,,,,,,,,,,,,,left,0.318236112595,participant1,26 ,59.8440799461,female,trial,2017_May_24_1609,
,,0.62,"[2.25, 0]",/sounds/legit/right30.wav,,,,,,,,,6,1,211,9,,,,,,,,,,,,,,,left,0.0178329944611,participant1,26 ,59.8440799461,female,trial,2017_May_24_1609,
,,0.36,"[-4.5, 0]",/sounds/legit/left60.wav,,,,,,,,,6,2,212,27,,,,,,,,,,,,,,,left,0.101035118103,participant1,26 ,59.8440799461,female,trial,2017_May_24_1609,
