path,name,noise,location,correspondingAudio,audiotrials.thisRepN,audiotrials.thisTrialN,audiotrials.thisN,audiotrials.thisIndex,visualTrials.thisRepN,visualTrials.thisTrialN,visualTrials.thisN,visualTrials.thisIndex,combinedTrials.thisRepN,combinedTrials.thisTrialN,combinedTrials.thisN,combinedTrials.thisIndex,WelcomeKey.keys,WelcomeKey.rt,key_resp_2.keys,key_resp_2.rt,AudioInstrAccept.keys,AudioInstrAccept.rt,LeftorRight.keys,LeftorRight.rt,VisualBlock.keys,VisualBlock.rt,VisualDecision.keys,VisualDecision.rt,CombinedAccept.keys,CombinedAccept.rt,CombComparisonResponse.keys,CombComparisonResponse.rt,participant,age,frameRate,sex,expName,date,
,,,,,,,,,,,,,,,,,space,18.6651329994,,,,,,,,,,,,,,,participant2,32,59.876714871,female,trial,2017_May_24_1541,
,,,,,,,,,,,,,,,,,,,space,15.2348620892,,,,,,,,,,,,,participant2,32,59.876714871,female,trial,2017_May_24_1541,
,,,,,,,,,,,,,,,,,,,,,space,51.2789330482,,,,,,,,,,,participant2,32,59.876714871,female,trial,2017_May_24_1541,
/sounds/legit/left100.wav,left100,,,,0,0,0,0,,,,,,,,,,,,,,,left,1.50489115715,,,,,,,,,participant2,32,59.876714871,female,trial,2017_May_24_1541,
/sounds/legit/right100.wav,right100,,,,0,1,1,5,,,,,,,,,,,,,,,right,1.38734698296,,,,,,,,,participant2,32,59.876714871,female,trial,2017_May_24_1541,
/sounds/legit/right70.wav,right60,,,,0,2,2,4,,,,,,,,,,,,,,,right,1.08722805977,,,,,,,,,participant2,32,59.876714871,female,trial,2017_May_24_1541,
/sounds/legit/right35.wav,right30,,,,0,3,3,3,,,,,,,,,,,,,,,left,1.15405106544,,,,,,,,,participant2,32,59.876714871,female,trial,2017_May_24_1541,
/sounds/legit/left35.wav,left30,,,,0,4,4,2,,,,,,,,,,,,,,,left,0.920030832291,,,,,,,,,participant2,32,59.876714871,female,trial,2017_May_24_1541,
/sounds/legit/left70.wav,left60,,,,0,5,5,1,,,,,,,,,,,,,,,left,0.953426122665,,,,,,,,,participant2,32,59.876714871,female,trial,2017_May_24_1541,
/sounds/legit/right100.wav,right100,,,,1,0,6,5,,,,,,,,,,,,,,,right,0.602540016174,,,,,,,,,participant2,32,59.876714871,female,trial,2017_May_24_1541,
/sounds/legit/right35.wav,right30,,,,1,1,7,3,,,,,,,,,,,,,,,right,1.48779296875,,,,,,,,,participant2,32,59.876714871,female,trial,2017_May_24_1541,
/sounds/legit/left70.wav,left60,,,,1,2,8,1,,,,,,,,,,,,,,,left,1.08743596077,,,,,,,,,participant2,32,59.876714871,female,trial,2017_May_24_1541,
/sounds/legit/left100.wav,left100,,,,1,3,9,0,,,,,,,,,,,,,,,left,1.12064504623,,,,,,,,,participant2,32,59.876714871,female,trial,2017_May_24_1541,
/sounds/legit/left35.wav,left30,,,,1,4,10,2,,,,,,,,,,,,,,,left,0.970366954803,,,,,,,,,participant2,32,59.876714871,female,trial,2017_May_24_1541,
/sounds/legit/right70.wav,right60,,,,1,5,11,4,,,,,,,,,,,,,,,right,0.987007856369,,,,,,,,,participant2,32,59.876714871,female,trial,2017_May_24_1541,
/sounds/legit/right35.wav,right30,,,,2,0,12,3,,,,,,,,,,,,,,,left,1.12027716637,,,,,,,,,participant2,32,59.876714871,female,trial,2017_May_24_1541,
/sounds/legit/left100.wav,left100,,,,2,1,13,0,,,,,,,,,,,,,,,left,1.00337386131,,,,,,,,,participant2,32,59.876714871,female,trial,2017_May_24_1541,
/sounds/legit/right70.wav,right60,,,,2,2,14,4,,,,,,,,,,,,,,,right,0.552592039108,,,,,,,,,participant2,32,59.876714871,female,trial,2017_May_24_1541,
/sounds/legit/left35.wav,left30,,,,2,3,15,2,,,,,,,,,,,,,,,left,1.67166399956,,,,,,,,,participant2,32,59.876714871,female,trial,2017_May_24_1541,
/sounds/legit/left70.wav,left60,,,,2,4,16,1,,,,,,,,,,,,,,,left,0.402161836624,,,,,,,,,participant2,32,59.876714871,female,trial,2017_May_24_1541,
/sounds/legit/right100.wav,right100,,,,2,5,17,5,,,,,,,,,,,,,,,right,0.351595878601,,,,,,,,,participant2,32,59.876714871,female,trial,2017_May_24_1541,
/sounds/legit/left35.wav,left30,,,,3,0,18,2,,,,,,,,,,,,,,,left,0.519091129303,,,,,,,,,participant2,32,59.876714871,female,trial,2017_May_24_1541,
/sounds/legit/right100.wav,right100,,,,3,1,19,5,,,,,,,,,,,,,,,right,0.418982028961,,,,,,,,,participant2,32,59.876714871,female,trial,2017_May_24_1541,
/sounds/legit/right35.wav,right30,,,,3,2,20,3,,,,,,,,,,,,,,,left,0.534739971161,,,,,,,,,participant2,32,59.876714871,female,trial,2017_May_24_1541,
/sounds/legit/right70.wav,right60,,,,3,3,21,4,,,,,,,,,,,,,,,right,1.13705706596,,,,,,,,,participant2,32,59.876714871,female,trial,2017_May_24_1541,
/sounds/legit/left70.wav,left60,,,,3,4,22,1,,,,,,,,,,,,,,,left,0.853049993515,,,,,,,,,participant2,32,59.876714871,female,trial,2017_May_24_1541,
/sounds/legit/left100.wav,left100,,,,3,5,23,0,,,,,,,,,,,,,,,left,0.43555188179,,,,,,,,,participant2,32,59.876714871,female,trial,2017_May_24_1541,
/sounds/legit/left35.wav,left30,,,,4,0,24,2,,,,,,,,,,,,,,,left,0.685924053192,,,,,,,,,participant2,32,59.876714871,female,trial,2017_May_24_1541,
/sounds/legit/right100.wav,right100,,,,4,1,25,5,,,,,,,,,,,,,,,right,0.301949977875,,,,,,,,,participant2,32,59.876714871,female,trial,2017_May_24_1541,
/sounds/legit/right70.wav,right60,,,,4,2,26,4,,,,,,,,,,,,,,,right,0.619770050049,,,,,,,,,participant2,32,59.876714871,female,trial,2017_May_24_1541,
/sounds/legit/left100.wav,left100,,,,4,3,27,0,,,,,,,,,,,,,,,left,0.23526096344,,,,,,,,,participant2,32,59.876714871,female,trial,2017_May_24_1541,
/sounds/legit/right35.wav,right30,,,,4,4,28,3,,,,,,,,,,,,,,,left,1.40432405472,,,,,,,,,participant2,32,59.876714871,female,trial,2017_May_24_1541,
/sounds/legit/left70.wav,left60,,,,4,5,29,1,,,,,,,,,,,,,,,left,0.351231098175,,,,,,,,,participant2,32,59.876714871,female,trial,2017_May_24_1541,
/sounds/legit/left35.wav,left30,,,,5,0,30,2,,,,,,,,,,,,,,,left,0.802865028381,,,,,,,,,participant2,32,59.876714871,female,trial,2017_May_24_1541,
/sounds/legit/right35.wav,right30,,,,5,1,31,3,,,,,,,,,,,,,,,right,0.251733064651,,,,,,,,,participant2,32,59.876714871,female,trial,2017_May_24_1541,
/sounds/legit/left70.wav,left60,,,,5,2,32,1,,,,,,,,,,,,,,,left,0.569142103195,,,,,,,,,participant2,32,59.876714871,female,trial,2017_May_24_1541,
/sounds/legit/right100.wav,right100,,,,5,3,33,5,,,,,,,,,,,,,,,right,0.201719045639,,,,,,,,,participant2,32,59.876714871,female,trial,2017_May_24_1541,
/sounds/legit/right70.wav,right60,,,,5,4,34,4,,,,,,,,,,,,,,,right,0.535809993744,,,,,,,,,participant2,32,59.876714871,female,trial,2017_May_24_1541,
/sounds/legit/left100.wav,left100,,,,5,5,35,0,,,,,,,,,,,,,,,left,0.385529994965,,,,,,,,,participant2,32,59.876714871,female,trial,2017_May_24_1541,
/sounds/legit/left70.wav,left60,,,,6,0,36,1,,,,,,,,,,,,,,,left,0.402526855469,,,,,,,,,participant2,32,59.876714871,female,trial,2017_May_24_1541,
/sounds/legit/left35.wav,left30,,,,6,1,37,2,,,,,,,,,,,,,,,left,0.419083118439,,,,,,,,,participant2,32,59.876714871,female,trial,2017_May_24_1541,
/sounds/legit/right70.wav,right60,,,,6,2,38,4,,,,,,,,,,,,,,,right,0.268594026566,,,,,,,,,participant2,32,59.876714871,female,trial,2017_May_24_1541,
/sounds/legit/left100.wav,left100,,,,6,3,39,0,,,,,,,,,,,,,,,left,0.786293983459,,,,,,,,,participant2,32,59.876714871,female,trial,2017_May_24_1541,
/sounds/legit/right35.wav,right30,,,,6,4,40,3,,,,,,,,,,,,,,,left,1.8877491951,,,,,,,,,participant2,32,59.876714871,female,trial,2017_May_24_1541,
/sounds/legit/right100.wav,right100,,,,6,5,41,5,,,,,,,,,,,,,,,right,0.235214948654,,,,,,,,,participant2,32,59.876714871,female,trial,2017_May_24_1541,
/sounds/legit/right100.wav,right100,,,,7,0,42,5,,,,,,,,,,,,,,,right,0.218491077423,,,,,,,,,participant2,32,59.876714871,female,trial,2017_May_24_1541,
/sounds/legit/left70.wav,left60,,,,7,1,43,1,,,,,,,,,,,,,,,left,0.75278711319,,,,,,,,,participant2,32,59.876714871,female,trial,2017_May_24_1541,
/sounds/legit/left35.wav,left30,,,,7,2,44,2,,,,,,,,,,,,,,,left,0.70308804512,,,,,,,,,participant2,32,59.876714871,female,trial,2017_May_24_1541,
/sounds/legit/right35.wav,right30,,,,7,3,45,3,,,,,,,,,,,,,,,right,0.919814109802,,,,,,,,,participant2,32,59.876714871,female,trial,2017_May_24_1541,
/sounds/legit/left100.wav,left100,,,,7,4,46,0,,,,,,,,,,,,,,,left,0.268445014954,,,,,,,,,participant2,32,59.876714871,female,trial,2017_May_24_1541,
/sounds/legit/right70.wav,right60,,,,7,5,47,4,,,,,,,,,,,,,,,right,0.352231025696,,,,,,,,,participant2,32,59.876714871,female,trial,2017_May_24_1541,
/sounds/legit/right35.wav,right30,,,,8,0,48,3,,,,,,,,,,,,,,,right,2.35664796829,,,,,,,,,participant2,32,59.876714871,female,trial,2017_May_24_1541,
/sounds/legit/right100.wav,right100,,,,8,1,49,5,,,,,,,,,,,,,,,right,0.235110998154,,,,,,,,,participant2,32,59.876714871,female,trial,2017_May_24_1541,
/sounds/legit/right70.wav,right60,,,,8,2,50,4,,,,,,,,,,,,,,,right,0.736300945282,,,,,,,,,participant2,32,59.876714871,female,trial,2017_May_24_1541,
/sounds/legit/left70.wav,left60,,,,8,3,51,1,,,,,,,,,,,,,,,left,0.686169147491,,,,,,,,,participant2,32,59.876714871,female,trial,2017_May_24_1541,
/sounds/legit/left35.wav,left30,,,,8,4,52,2,,,,,,,,,,,,,,,left,0.685206890106,,,,,,,,,participant2,32,59.876714871,female,trial,2017_May_24_1541,
/sounds/legit/left100.wav,left100,,,,8,5,53,0,,,,,,,,,,,,,,,left,0.251986026764,,,,,,,,,participant2,32,59.876714871,female,trial,2017_May_24_1541,
/sounds/legit/right100.wav,right100,,,,9,0,54,5,,,,,,,,,,,,,,,right,0.235105991364,,,,,,,,,participant2,32,59.876714871,female,trial,2017_May_24_1541,
/sounds/legit/left100.wav,left100,,,,9,1,55,0,,,,,,,,,,,,,,,left,0.317985057831,,,,,,,,,participant2,32,59.876714871,female,trial,2017_May_24_1541,
/sounds/legit/left70.wav,left60,,,,9,2,56,1,,,,,,,,,,,,,,,left,0.552346229553,,,,,,,,,participant2,32,59.876714871,female,trial,2017_May_24_1541,
/sounds/legit/left35.wav,left30,,,,9,3,57,2,,,,,,,,,,,,,,,left,0.502285003662,,,,,,,,,participant2,32,59.876714871,female,trial,2017_May_24_1541,
/sounds/legit/right70.wav,right60,,,,9,4,58,4,,,,,,,,,,,,,,,right,0.318473815918,,,,,,,,,participant2,32,59.876714871,female,trial,2017_May_24_1541,
/sounds/legit/right35.wav,right30,,,,9,5,59,3,,,,,,,,,,,,,,,left,0.703164100647,,,,,,,,,participant2,32,59.876714871,female,trial,2017_May_24_1541,
,,,,,,,,,,,,,,,,,,,,,,,,,space,21.3645079136,,,,,,,participant2,32,59.876714871,female,trial,2017_May_24_1541,
,,0.36,"[-6.75, 0]",/sounds/legit/left100.wav,,,,,0,0,0,32,,,,,,,,,,,,,,,left,23.8705990314,,,,,participant2,32,59.876714871,female,trial,2017_May_24_1541,
,,0.62,"[-4.5, 0]",/sounds/legit/left60.wav,,,,,0,1,1,29,,,,,,,,,,,,,,,left,3.34183692932,,,,,participant2,32,59.876714871,female,trial,2017_May_24_1541,
,,0.1,"[6.75, 0]",/sounds/legit/right100.wav,,,,,0,2,2,15,,,,,,,,,,,,,,,right,0.652951002121,,,,,participant2,32,59.876714871,female,trial,2017_May_24_1541,
,,0.62,"[4.5, 0]",/sounds/legit/right60.wav,,,,,0,3,3,14,,,,,,,,,,,,,,,right,0.819642782211,,,,,participant2,32,59.876714871,female,trial,2017_May_24_1541,
,,0.62,"[6.75, 0]",/sounds/legit/right100.wav,,,,,0,4,4,19,,,,,,,,,,,,,,,right,1.03702306747,,,,,participant2,32,59.876714871,female,trial,2017_May_24_1541,
,,0.49,"[-6.75, 0]",/sounds/legit/left100.wav,,,,,0,5,5,33,,,,,,,,,,,,,,,left,1.43685603142,,,,,participant2,32,59.876714871,female,trial,2017_May_24_1541,
,,0.62,"[-6.75, 0]",/sounds/legit/left100.wav,,,,,0,6,6,34,,,,,,,,,,,,,,,left,1.05346512794,,,,,participant2,32,59.876714871,female,trial,2017_May_24_1541,
,,0.1,"[-2.25, 0]",/sounds/legit/left30.wav,,,,,0,7,7,20,,,,,,,,,,,,,,,left,0.669588804245,,,,,participant2,32,59.876714871,female,trial,2017_May_24_1541,
,,0.62,"[0, 0]",/sounds/legit/equal.wav,,,,,0,8,8,4,,,,,,,,,,,,,,,left,1.18736600876,,,,,participant2,32,59.876714871,female,trial,2017_May_24_1541,
,,0.23,"[4.5, 0]",/sounds/legit/right60.wav,,,,,0,9,9,11,,,,,,,,,,,,,,,right,0.753113985062,,,,,participant2,32,59.876714871,female,trial,2017_May_24_1541,
,,0.62,"[2.25, 0]",/sounds/legit/right30.wav,,,,,0,10,10,9,,,,,,,,,,,,,,,right,0.769599914551,,,,,participant2,32,59.876714871,female,trial,2017_May_24_1541,
,,0.23,"[-2.25, 0]",/sounds/legit/left30.wav,,,,,0,11,11,21,,,,,,,,,,,,,,,left,0.586128950119,,,,,participant2,32,59.876714871,female,trial,2017_May_24_1541,
,,0.62,"[-2.25, 0]",/sounds/legit/left30.wav,,,,,0,12,12,24,,,,,,,,,,,,,,,left,0.619572162628,,,,,participant2,32,59.876714871,female,trial,2017_May_24_1541,
,,0.1,"[-4.5, 0]",/sounds/legit/left60.wav,,,,,0,13,13,25,,,,,,,,,,,,,,,left,0.452636003494,,,,,participant2,32,59.876714871,female,trial,2017_May_24_1541,
,,0.23,"[6.75, 0]",/sounds/legit/right100.wav,,,,,0,14,14,16,,,,,,,,,,,,,,,right,0.452682971954,,,,,participant2,32,59.876714871,female,trial,2017_May_24_1541,
,,0.36,"[4.5, 0]",/sounds/legit/right60.wav,,,,,0,15,15,12,,,,,,,,,,,,,,,right,0.418751955032,,,,,participant2,32,59.876714871,female,trial,2017_May_24_1541,
,,0.36,"[2.25, 0]",/sounds/legit/right30.wav,,,,,0,16,16,7,,,,,,,,,,,,,,,right,0.435619115829,,,,,participant2,32,59.876714871,female,trial,2017_May_24_1541,
,,0.49,"[-4.5, 0]",/sounds/legit/left60.wav,,,,,0,17,17,28,,,,,,,,,,,,,,,left,0.469437122345,,,,,participant2,32,59.876714871,female,trial,2017_May_24_1541,
,,0.23,"[-6.75, 0]",/sounds/legit/left100.wav,,,,,0,18,18,31,,,,,,,,,,,,,,,left,0.569329023361,,,,,participant2,32,59.876714871,female,trial,2017_May_24_1541,
,,0.49,"[2.25, 0]",/sounds/legit/right30.wav,,,,,0,19,19,8,,,,,,,,,,,,,,,right,0.569308996201,,,,,participant2,32,59.876714871,female,trial,2017_May_24_1541,
,,0.23,"[2.25, 0]",/sounds/legit/right30.wav,,,,,0,20,20,6,,,,,,,,,,,,,,,right,0.452224969864,,,,,participant2,32,59.876714871,female,trial,2017_May_24_1541,
,,0.1,"[0, 0]",/sounds/legit/equal.wav,,,,,0,21,21,0,,,,,,,,,,,,,,,left,0.920170068741,,,,,participant2,32,59.876714871,female,trial,2017_May_24_1541,
,,0.36,"[-4.5, 0]",/sounds/legit/left60.wav,,,,,0,22,22,27,,,,,,,,,,,,,,,left,0.535908937454,,,,,participant2,32,59.876714871,female,trial,2017_May_24_1541,
,,0.1,"[4.5, 0]",/sounds/legit/right60.wav,,,,,0,23,23,10,,,,,,,,,,,,,,,right,0.519432067871,,,,,participant2,32,59.876714871,female,trial,2017_May_24_1541,
,,0.1,"[-6.75, 0]",/sounds/legit/left100.wav,,,,,0,24,24,30,,,,,,,,,,,,,,,left,0.485857009888,,,,,participant2,32,59.876714871,female,trial,2017_May_24_1541,
,,0.36,"[6.75, 0]",/sounds/legit/right100.wav,,,,,0,25,25,17,,,,,,,,,,,,,,,right,0.502743959427,,,,,participant2,32,59.876714871,female,trial,2017_May_24_1541,
,,0.1,"[2.25, 0]",/sounds/legit/right30.wav,,,,,0,26,26,5,,,,,,,,,,,,,,,right,0.435532093048,,,,,participant2,32,59.876714871,female,trial,2017_May_24_1541,
,,0.49,"[6.75, 0]",/sounds/legit/right100.wav,,,,,0,27,27,18,,,,,,,,,,,,,,,right,0.903256893158,,,,,participant2,32,59.876714871,female,trial,2017_May_24_1541,
,,0.23,"[0, 0]",/sounds/legit/equal.wav,,,,,0,28,28,1,,,,,,,,,,,,,,,left,0.970098018646,,,,,participant2,32,59.876714871,female,trial,2017_May_24_1541,
,,0.49,"[-2.25, 0]",/sounds/legit/left30.wav,,,,,0,29,29,23,,,,,,,,,,,,,,,left,0.586040973663,,,,,participant2,32,59.876714871,female,trial,2017_May_24_1541,
,,0.49,"[4.5, 0]",/sounds/legit/right60.wav,,,,,0,30,30,13,,,,,,,,,,,,,,,right,0.519361972809,,,,,participant2,32,59.876714871,female,trial,2017_May_24_1541,
,,0.36,"[0, 0]",/sounds/legit/equal.wav,,,,,0,31,31,2,,,,,,,,,,,,,,,left,1.27075004578,,,,,participant2,32,59.876714871,female,trial,2017_May_24_1541,
,,0.49,"[0, 0]",/sounds/legit/equal.wav,,,,,0,32,32,3,,,,,,,,,,,,,,,left,0.969887971878,,,,,participant2,32,59.876714871,female,trial,2017_May_24_1541,
,,0.36,"[-2.25, 0]",/sounds/legit/left30.wav,,,,,0,33,33,22,,,,,,,,,,,,,,,left,0.519007921219,,,,,participant2,32,59.876714871,female,trial,2017_May_24_1541,
,,0.23,"[-4.5, 0]",/sounds/legit/left60.wav,,,,,0,34,34,26,,,,,,,,,,,,,,,left,1.68829607964,,,,,participant2,32,59.876714871,female,trial,2017_May_24_1541,
,,0.49,"[2.25, 0]",/sounds/legit/right30.wav,,,,,1,0,35,8,,,,,,,,,,,,,,,right,0.48575592041,,,,,participant2,32,59.876714871,female,trial,2017_May_24_1541,
,,0.62,"[-6.75, 0]",/sounds/legit/left100.wav,,,,,1,1,36,34,,,,,,,,,,,,,,,left,0.735454082489,,,,,participant2,32,59.876714871,female,trial,2017_May_24_1541,
,,0.62,"[-2.25, 0]",/sounds/legit/left30.wav,,,,,1,2,37,24,,,,,,,,,,,,,,,left,0.652976036072,,,,,participant2,32,59.876714871,female,trial,2017_May_24_1541,
,,0.1,"[-6.75, 0]",/sounds/legit/left100.wav,,,,,1,3,38,30,,,,,,,,,,,,,,,left,0.502632856369,,,,,participant2,32,59.876714871,female,trial,2017_May_24_1541,
,,0.1,"[6.75, 0]",/sounds/legit/right100.wav,,,,,1,4,39,15,,,,,,,,,,,,,,,right,0.368772029877,,,,,participant2,32,59.876714871,female,trial,2017_May_24_1541,
,,0.23,"[-4.5, 0]",/sounds/legit/left60.wav,,,,,1,5,40,26,,,,,,,,,,,,,,,left,0.519222974777,,,,,participant2,32,59.876714871,female,trial,2017_May_24_1541,
,,0.36,"[4.5, 0]",/sounds/legit/right60.wav,,,,,1,6,41,12,,,,,,,,,,,,,,,right,0.40206193924,,,,,participant2,32,59.876714871,female,trial,2017_May_24_1541,
,,0.49,"[-6.75, 0]",/sounds/legit/left100.wav,,,,,1,7,42,33,,,,,,,,,,,,,,,left,0.552331924438,,,,,participant2,32,59.876714871,female,trial,2017_May_24_1541,
,,0.49,"[6.75, 0]",/sounds/legit/right100.wav,,,,,1,8,43,18,,,,,,,,,,,,,,,right,0.168444871902,,,,,participant2,32,59.876714871,female,trial,2017_May_24_1541,
,,0.23,"[0, 0]",/sounds/legit/equal.wav,,,,,1,9,44,1,,,,,,,,,,,,,,,left,0.719516992569,,,,,participant2,32,59.876714871,female,trial,2017_May_24_1541,
,,0.62,"[4.5, 0]",/sounds/legit/right60.wav,,,,,1,10,45,14,,,,,,,,,,,,,,,right,0.352161884308,,,,,participant2,32,59.876714871,female,trial,2017_May_24_1541,
,,0.62,"[0, 0]",/sounds/legit/equal.wav,,,,,1,11,46,4,,,,,,,,,,,,,,,left,0.569132089615,,,,,participant2,32,59.876714871,female,trial,2017_May_24_1541,
,,0.36,"[-2.25, 0]",/sounds/legit/left30.wav,,,,,1,12,47,22,,,,,,,,,,,,,,,left,0.469148874283,,,,,participant2,32,59.876714871,female,trial,2017_May_24_1541,
,,0.23,"[2.25, 0]",/sounds/legit/right30.wav,,,,,1,13,48,6,,,,,,,,,,,,,,,right,0.417970895767,,,,,participant2,32,59.876714871,female,trial,2017_May_24_1541,
,,0.36,"[2.25, 0]",/sounds/legit/right30.wav,,,,,1,14,49,7,,,,,,,,,,,,,,,right,0.452237129211,,,,,participant2,32,59.876714871,female,trial,2017_May_24_1541,
,,0.62,"[2.25, 0]",/sounds/legit/right30.wav,,,,,1,15,50,9,,,,,,,,,,,,,,,right,0.435493946075,,,,,participant2,32,59.876714871,female,trial,2017_May_24_1541,
,,0.36,"[6.75, 0]",/sounds/legit/right100.wav,,,,,1,16,51,17,,,,,,,,,,,,,,,right,0.535784959793,,,,,participant2,32,59.876714871,female,trial,2017_May_24_1541,
,,0.1,"[0, 0]",/sounds/legit/equal.wav,,,,,1,17,52,0,,,,,,,,,,,,,,,left,0.71978020668,,,,,participant2,32,59.876714871,female,trial,2017_May_24_1541,
,,0.36,"[-6.75, 0]",/sounds/legit/left100.wav,,,,,1,18,53,32,,,,,,,,,,,,,,,left,0.502622842789,,,,,participant2,32,59.876714871,female,trial,2017_May_24_1541,
,,0.23,"[4.5, 0]",/sounds/legit/right60.wav,,,,,1,19,54,11,,,,,,,,,,,,,,,right,0.452403068542,,,,,participant2,32,59.876714871,female,trial,2017_May_24_1541,
,,0.1,"[-4.5, 0]",/sounds/legit/left60.wav,,,,,1,20,55,25,,,,,,,,,,,,,,,left,0.435659885406,,,,,participant2,32,59.876714871,female,trial,2017_May_24_1541,
,,0.62,"[-4.5, 0]",/sounds/legit/left60.wav,,,,,1,21,56,29,,,,,,,,,,,,,,,left,0.452630996704,,,,,participant2,32,59.876714871,female,trial,2017_May_24_1541,
,,0.23,"[-6.75, 0]",/sounds/legit/left100.wav,,,,,1,22,57,31,,,,,,,,,,,,,,,left,0.352389812469,,,,,participant2,32,59.876714871,female,trial,2017_May_24_1541,
,,0.23,"[-2.25, 0]",/sounds/legit/left30.wav,,,,,1,23,58,21,,,,,,,,,,,,,,,left,0.435548067093,,,,,participant2,32,59.876714871,female,trial,2017_May_24_1541,
,,0.23,"[6.75, 0]",/sounds/legit/right100.wav,,,,,1,24,59,16,,,,,,,,,,,,,,,right,0.335400104523,,,,,participant2,32,59.876714871,female,trial,2017_May_24_1541,
,,0.49,"[0, 0]",/sounds/legit/equal.wav,,,,,1,25,60,3,,,,,,,,,,,,,,,left,0.585855007172,,,,,participant2,32,59.876714871,female,trial,2017_May_24_1541,
,,0.49,"[-4.5, 0]",/sounds/legit/left60.wav,,,,,1,26,61,28,,,,,,,,,,,,,,,left,0.385661840439,,,,,participant2,32,59.876714871,female,trial,2017_May_24_1541,
,,0.49,"[4.5, 0]",/sounds/legit/right60.wav,,,,,1,27,62,13,,,,,,,,,,,,,,,right,0.669644832611,,,,,participant2,32,59.876714871,female,trial,2017_May_24_1541,
,,0.36,"[-4.5, 0]",/sounds/legit/left60.wav,,,,,1,28,63,27,,,,,,,,,,,,,,,left,0.568968057632,,,,,participant2,32,59.876714871,female,trial,2017_May_24_1541,
,,0.49,"[-2.25, 0]",/sounds/legit/left30.wav,,,,,1,29,64,23,,,,,,,,,,,,,,,left,0.619326114655,,,,,participant2,32,59.876714871,female,trial,2017_May_24_1541,
,,0.1,"[4.5, 0]",/sounds/legit/right60.wav,,,,,1,30,65,10,,,,,,,,,,,,,,,right,0.385545969009,,,,,participant2,32,59.876714871,female,trial,2017_May_24_1541,
,,0.1,"[2.25, 0]",/sounds/legit/right30.wav,,,,,1,31,66,5,,,,,,,,,,,,,,,right,0.469489812851,,,,,participant2,32,59.876714871,female,trial,2017_May_24_1541,
,,0.1,"[-2.25, 0]",/sounds/legit/left30.wav,,,,,1,32,67,20,,,,,,,,,,,,,,,left,0.652827978134,,,,,participant2,32,59.876714871,female,trial,2017_May_24_1541,
,,0.62,"[6.75, 0]",/sounds/legit/right100.wav,,,,,1,33,68,19,,,,,,,,,,,,,,,right,0.986711978912,,,,,participant2,32,59.876714871,female,trial,2017_May_24_1541,
,,0.36,"[0, 0]",/sounds/legit/equal.wav,,,,,1,34,69,2,,,,,,,,,,,,,,,left,0.73633480072,,,,,participant2,32,59.876714871,female,trial,2017_May_24_1541,
,,0.1,"[-6.75, 0]",/sounds/legit/left100.wav,,,,,2,0,70,30,,,,,,,,,,,,,,,left,0.302223205566,,,,,participant2,32,59.876714871,female,trial,2017_May_24_1541,
,,0.62,"[-4.5, 0]",/sounds/legit/left60.wav,,,,,2,1,71,29,,,,,,,,,,,,,,,left,0.534681081772,,,,,participant2,32,59.876714871,female,trial,2017_May_24_1541,
,,0.23,"[0, 0]",/sounds/legit/equal.wav,,,,,2,2,72,1,,,,,,,,,,,,,,,left,0.585912942886,,,,,participant2,32,59.876714871,female,trial,2017_May_24_1541,
,,0.1,"[2.25, 0]",/sounds/legit/right30.wav,,,,,2,3,73,5,,,,,,,,,,,,,,,right,0.51935005188,,,,,participant2,32,59.876714871,female,trial,2017_May_24_1541,
,,0.62,"[0, 0]",/sounds/legit/equal.wav,,,,,2,4,74,4,,,,,,,,,,,,,,,left,0.652792930603,,,,,participant2,32,59.876714871,female,trial,2017_May_24_1541,
,,0.49,"[-2.25, 0]",/sounds/legit/left30.wav,,,,,2,5,75,23,,,,,,,,,,,,,,,left,0.235223054886,,,,,participant2,32,59.876714871,female,trial,2017_May_24_1541,
,,0.23,"[4.5, 0]",/sounds/legit/right60.wav,,,,,2,6,76,11,,,,,,,,,,,,,,,right,0.469099998474,,,,,participant2,32,59.876714871,female,trial,2017_May_24_1541,
,,0.23,"[-4.5, 0]",/sounds/legit/left60.wav,,,,,2,7,77,26,,,,,,,,,,,,,,,left,0.352095127106,,,,,participant2,32,59.876714871,female,trial,2017_May_24_1541,
,,0.62,"[6.75, 0]",/sounds/legit/right100.wav,,,,,2,8,78,19,,,,,,,,,,,,,,,right,0.185294151306,,,,,participant2,32,59.876714871,female,trial,2017_May_24_1541,
,,0.49,"[4.5, 0]",/sounds/legit/right60.wav,,,,,2,9,79,13,,,,,,,,,,,,,,,right,0.352093935013,,,,,participant2,32,59.876714871,female,trial,2017_May_24_1541,
,,0.36,"[-4.5, 0]",/sounds/legit/left60.wav,,,,,2,10,80,27,,,,,,,,,,,,,,,left,0.368708848953,,,,,participant2,32,59.876714871,female,trial,2017_May_24_1541,
,,0.1,"[-2.25, 0]",/sounds/legit/left30.wav,,,,,2,11,81,20,,,,,,,,,,,,,,,left,0.452258825302,,,,,participant2,32,59.876714871,female,trial,2017_May_24_1541,
,,0.62,"[4.5, 0]",/sounds/legit/right60.wav,,,,,2,12,82,14,,,,,,,,,,,,,,,right,0.452164173126,,,,,participant2,32,59.876714871,female,trial,2017_May_24_1541,
,,0.36,"[4.5, 0]",/sounds/legit/right60.wav,,,,,2,13,83,12,,,,,,,,,,,,,,,right,0.819757938385,,,,,participant2,32,59.876714871,female,trial,2017_May_24_1541,
,,0.1,"[-4.5, 0]",/sounds/legit/left60.wav,,,,,2,14,84,25,,,,,,,,,,,,,,,left,0.652772903442,,,,,participant2,32,59.876714871,female,trial,2017_May_24_1541,
,,0.36,"[0, 0]",/sounds/legit/equal.wav,,,,,2,15,85,2,,,,,,,,,,,,,,,left,0.552753925323,,,,,participant2,32,59.876714871,female,trial,2017_May_24_1541,
,,0.1,"[6.75, 0]",/sounds/legit/right100.wav,,,,,2,16,86,15,,,,,,,,,,,,,,,right,0.318741083145,,,,,participant2,32,59.876714871,female,trial,2017_May_24_1541,
,,0.1,"[0, 0]",/sounds/legit/equal.wav,,,,,2,17,87,0,,,,,,,,,,,,,,,left,0.535870075226,,,,,participant2,32,59.876714871,female,trial,2017_May_24_1541,
,,0.62,"[2.25, 0]",/sounds/legit/right30.wav,,,,,2,18,88,9,,,,,,,,,,,,,,,right,0.535769939423,,,,,participant2,32,59.876714871,female,trial,2017_May_24_1541,
,,0.23,"[6.75, 0]",/sounds/legit/right100.wav,,,,,2,19,89,16,,,,,,,,,,,,,,,right,0.335253953934,,,,,participant2,32,59.876714871,female,trial,2017_May_24_1541,
,,0.62,"[-6.75, 0]",/sounds/legit/left100.wav,,,,,2,20,90,34,,,,,,,,,,,,,,,left,1.1540119648,,,,,participant2,32,59.876714871,female,trial,2017_May_24_1541,
,,0.49,"[2.25, 0]",/sounds/legit/right30.wav,,,,,2,21,91,8,,,,,,,,,,,,,,,right,0.519385099411,,,,,participant2,32,59.876714871,female,trial,2017_May_24_1541,
,,0.23,"[2.25, 0]",/sounds/legit/right30.wav,,,,,2,22,92,6,,,,,,,,,,,,,,,right,0.352159976959,,,,,participant2,32,59.876714871,female,trial,2017_May_24_1541,
,,0.36,"[6.75, 0]",/sounds/legit/right100.wav,,,,,2,23,93,17,,,,,,,,,,,,,,,right,0.302221059799,,,,,participant2,32,59.876714871,female,trial,2017_May_24_1541,
,,0.36,"[-2.25, 0]",/sounds/legit/left30.wav,,,,,2,24,94,22,,,,,,,,,,,,,,,left,0.318760871887,,,,,participant2,32,59.876714871,female,trial,2017_May_24_1541,
,,0.23,"[-6.75, 0]",/sounds/legit/left100.wav,,,,,2,25,95,31,,,,,,,,,,,,,,,left,0.485728979111,,,,,participant2,32,59.876714871,female,trial,2017_May_24_1541,
,,0.62,"[-2.25, 0]",/sounds/legit/left30.wav,,,,,2,26,96,24,,,,,,,,,,,,,,,left,0.385382890701,,,,,participant2,32,59.876714871,female,trial,2017_May_24_1541,
,,0.49,"[-4.5, 0]",/sounds/legit/left60.wav,,,,,2,27,97,28,,,,,,,,,,,,,,,left,0.285248041153,,,,,participant2,32,59.876714871,female,trial,2017_May_24_1541,
,,0.1,"[4.5, 0]",/sounds/legit/right60.wav,,,,,2,28,98,10,,,,,,,,,,,,,,,right,0.184849977493,,,,,participant2,32,59.876714871,female,trial,2017_May_24_1541,
,,0.23,"[-2.25, 0]",/sounds/legit/left30.wav,,,,,2,29,99,21,,,,,,,,,,,,,,,left,0.252063035965,,,,,participant2,32,59.876714871,female,trial,2017_May_24_1541,
,,0.36,"[2.25, 0]",/sounds/legit/right30.wav,,,,,2,30,100,7,,,,,,,,,,,,,,,right,0.368839025497,,,,,participant2,32,59.876714871,female,trial,2017_May_24_1541,
,,0.36,"[-6.75, 0]",/sounds/legit/left100.wav,,,,,2,31,101,32,,,,,,,,,,,,,,,left,0.318716049194,,,,,participant2,32,59.876714871,female,trial,2017_May_24_1541,
,,0.49,"[6.75, 0]",/sounds/legit/right100.wav,,,,,2,32,102,18,,,,,,,,,,,,,,,right,0.402216911316,,,,,participant2,32,59.876714871,female,trial,2017_May_24_1541,
,,0.49,"[-6.75, 0]",/sounds/legit/left100.wav,,,,,2,33,103,33,,,,,,,,,,,,,,,left,0.519257068634,,,,,participant2,32,59.876714871,female,trial,2017_May_24_1541,
,,0.49,"[0, 0]",/sounds/legit/equal.wav,,,,,2,34,104,3,,,,,,,,,,,,,,,left,0.635946989059,,,,,participant2,32,59.876714871,female,trial,2017_May_24_1541,
,,0.49,"[0, 0]",/sounds/legit/equal.wav,,,,,3,0,105,3,,,,,,,,,,,,,,,left,0.417854070663,,,,,participant2,32,59.876714871,female,trial,2017_May_24_1541,
,,0.36,"[4.5, 0]",/sounds/legit/right60.wav,,,,,3,1,106,12,,,,,,,,,,,,,,,right,0.50235581398,,,,,participant2,32,59.876714871,female,trial,2017_May_24_1541,
,,0.62,"[-2.25, 0]",/sounds/legit/left30.wav,,,,,3,2,107,24,,,,,,,,,,,,,,,left,0.435441017151,,,,,participant2,32,59.876714871,female,trial,2017_May_24_1541,
,,0.36,"[-6.75, 0]",/sounds/legit/left100.wav,,,,,3,3,108,32,,,,,,,,,,,,,,,left,0.418864965439,,,,,participant2,32,59.876714871,female,trial,2017_May_24_1541,
,,0.36,"[0, 0]",/sounds/legit/equal.wav,,,,,3,4,109,2,,,,,,,,,,,,,,,left,0.485672950745,,,,,participant2,32,59.876714871,female,trial,2017_May_24_1541,
,,0.62,"[-6.75, 0]",/sounds/legit/left100.wav,,,,,3,5,110,34,,,,,,,,,,,,,,,left,0.569129943848,,,,,participant2,32,59.876714871,female,trial,2017_May_24_1541,
,,0.62,"[4.5, 0]",/sounds/legit/right60.wav,,,,,3,6,111,14,,,,,,,,,,,,,,,right,0.301948070526,,,,,participant2,32,59.876714871,female,trial,2017_May_24_1541,
,,0.49,"[4.5, 0]",/sounds/legit/right60.wav,,,,,3,7,112,13,,,,,,,,,,,,,,,right,0.318640947342,,,,,participant2,32,59.876714871,female,trial,2017_May_24_1541,
,,0.49,"[-2.25, 0]",/sounds/legit/left30.wav,,,,,3,8,113,23,,,,,,,,,,,,,,,left,0.468921899796,,,,,participant2,32,59.876714871,female,trial,2017_May_24_1541,
,,0.62,"[2.25, 0]",/sounds/legit/right30.wav,,,,,3,9,114,9,,,,,,,,,,,,,,,right,0.853271007538,,,,,participant2,32,59.876714871,female,trial,2017_May_24_1541,
,,0.1,"[-2.25, 0]",/sounds/legit/left30.wav,,,,,3,10,115,20,,,,,,,,,,,,,,,left,0.235335111618,,,,,participant2,32,59.876714871,female,trial,2017_May_24_1541,
,,0.23,"[0, 0]",/sounds/legit/equal.wav,,,,,3,11,116,1,,,,,,,,,,,,,,,left,0.48567700386,,,,,participant2,32,59.876714871,female,trial,2017_May_24_1541,
,,0.36,"[-4.5, 0]",/sounds/legit/left60.wav,,,,,3,12,117,27,,,,,,,,,,,,,,,left,0.168334960938,,,,,participant2,32,59.876714871,female,trial,2017_May_24_1541,
,,0.36,"[-2.25, 0]",/sounds/legit/left30.wav,,,,,3,13,118,22,,,,,,,,,,,,,,,left,0.235106945038,,,,,participant2,32,59.876714871,female,trial,2017_May_24_1541,
,,0.1,"[-4.5, 0]",/sounds/legit/left60.wav,,,,,3,14,119,25,,,,,,,,,,,,,,,left,0.469059944153,,,,,participant2,32,59.876714871,female,trial,2017_May_24_1541,
,,0.36,"[2.25, 0]",/sounds/legit/right30.wav,,,,,3,15,120,7,,,,,,,,,,,,,,,right,0.301976919174,,,,,participant2,32,59.876714871,female,trial,2017_May_24_1541,
,,0.49,"[6.75, 0]",/sounds/legit/right100.wav,,,,,3,16,121,18,,,,,,,,,,,,,,,right,0.485687017441,,,,,participant2,32,59.876714871,female,trial,2017_May_24_1541,
,,0.49,"[2.25, 0]",/sounds/legit/right30.wav,,,,,3,17,122,8,,,,,,,,,,,,,,,right,0.686330080032,,,,,participant2,32,59.876714871,female,trial,2017_May_24_1541,
,,0.23,"[-4.5, 0]",/sounds/legit/left60.wav,,,,,3,18,123,26,,,,,,,,,,,,,,,left,0.335471153259,,,,,participant2,32,59.876714871,female,trial,2017_May_24_1541,
,,0.23,"[6.75, 0]",/sounds/legit/right100.wav,,,,,3,19,124,16,,,,,,,,,,,,,,,right,0.468891859055,,,,,participant2,32,59.876714871,female,trial,2017_May_24_1541,
,,0.23,"[2.25, 0]",/sounds/legit/right30.wav,,,,,3,20,125,6,,,,,,,,,,,,,,,right,0.419220209122,,,,,participant2,32,59.876714871,female,trial,2017_May_24_1541,
,,0.1,"[6.75, 0]",/sounds/legit/right100.wav,,,,,3,21,126,15,,,,,,,,,,,,,,,right,0.151746988297,,,,,participant2,32,59.876714871,female,trial,2017_May_24_1541,
,,0.1,"[4.5, 0]",/sounds/legit/right60.wav,,,,,3,22,127,10,,,,,,,,,,,,,,,right,0.368913173676,,,,,participant2,32,59.876714871,female,trial,2017_May_24_1541,
,,0.1,"[2.25, 0]",/sounds/legit/right30.wav,,,,,3,23,128,5,,,,,,,,,,,,,,,right,0.135084152222,,,,,participant2,32,59.876714871,female,trial,2017_May_24_1541,
,,0.49,"[-4.5, 0]",/sounds/legit/left60.wav,,,,,3,24,129,28,,,,,,,,,,,,,,,left,0.385405063629,,,,,participant2,32,59.876714871,female,trial,2017_May_24_1541,
,,0.62,"[-4.5, 0]",/sounds/legit/left60.wav,,,,,3,25,130,29,,,,,,,,,,,,,,,left,0.535729169846,,,,,participant2,32,59.876714871,female,trial,2017_May_24_1541,
,,0.36,"[6.75, 0]",/sounds/legit/right100.wav,,,,,3,26,131,17,,,,,,,,,,,,,,,right,0.151802062988,,,,,participant2,32,59.876714871,female,trial,2017_May_24_1541,
,,0.1,"[-6.75, 0]",/sounds/legit/left100.wav,,,,,3,27,132,30,,,,,,,,,,,,,,,left,0.48561000824,,,,,participant2,32,59.876714871,female,trial,2017_May_24_1541,
,,0.49,"[-6.75, 0]",/sounds/legit/left100.wav,,,,,3,28,133,33,,,,,,,,,,,,,,,left,0.402274847031,,,,,participant2,32,59.876714871,female,trial,2017_May_24_1541,
,,0.1,"[0, 0]",/sounds/legit/equal.wav,,,,,3,29,134,0,,,,,,,,,,,,,,,left,0.585675001144,,,,,participant2,32,59.876714871,female,trial,2017_May_24_1541,
,,0.62,"[0, 0]",/sounds/legit/equal.wav,,,,,3,30,135,4,,,,,,,,,,,,,,,left,0.352007865906,,,,,participant2,32,59.876714871,female,trial,2017_May_24_1541,
,,0.23,"[-6.75, 0]",/sounds/legit/left100.wav,,,,,3,31,136,31,,,,,,,,,,,,,,,left,0.352540016174,,,,,participant2,32,59.876714871,female,trial,2017_May_24_1541,
,,0.23,"[4.5, 0]",/sounds/legit/right60.wav,,,,,3,32,137,11,,,,,,,,,,,,,,,right,0.502444028854,,,,,participant2,32,59.876714871,female,trial,2017_May_24_1541,
,,0.62,"[6.75, 0]",/sounds/legit/right100.wav,,,,,3,33,138,19,,,,,,,,,,,,,,,right,0.535679101944,,,,,participant2,32,59.876714871,female,trial,2017_May_24_1541,
,,0.23,"[-2.25, 0]",/sounds/legit/left30.wav,,,,,3,34,139,21,,,,,,,,,,,,,,,left,0.619441986084,,,,,participant2,32,59.876714871,female,trial,2017_May_24_1541,
,,0.23,"[-2.25, 0]",/sounds/legit/left30.wav,,,,,4,0,140,21,,,,,,,,,,,,,,,left,0.418930053711,,,,,participant2,32,59.876714871,female,trial,2017_May_24_1541,
,,0.62,"[6.75, 0]",/sounds/legit/right100.wav,,,,,4,1,141,19,,,,,,,,,,,,,,,left,1.83851909637,,,,,participant2,32,59.876714871,female,trial,2017_May_24_1541,
,,0.49,"[6.75, 0]",/sounds/legit/right100.wav,,,,,4,2,142,18,,,,,,,,,,,,,,,right,0.367909908295,,,,,participant2,32,59.876714871,female,trial,2017_May_24_1541,
,,0.49,"[4.5, 0]",/sounds/legit/right60.wav,,,,,4,3,143,13,,,,,,,,,,,,,,,right,0.285337924957,,,,,participant2,32,59.876714871,female,trial,2017_May_24_1541,
,,0.49,"[0, 0]",/sounds/legit/equal.wav,,,,,4,4,144,3,,,,,,,,,,,,,,,left,0.870027065277,,,,,participant2,32,59.876714871,female,trial,2017_May_24_1541,
,,0.1,"[-2.25, 0]",/sounds/legit/left30.wav,,,,,4,5,145,20,,,,,,,,,,,,,,,left,0.485722064972,,,,,participant2,32,59.876714871,female,trial,2017_May_24_1541,
,,0.49,"[2.25, 0]",/sounds/legit/right30.wav,,,,,4,6,146,8,,,,,,,,,,,,,,,right,0.635340929031,,,,,participant2,32,59.876714871,female,trial,2017_May_24_1541,
,,0.62,"[-2.25, 0]",/sounds/legit/left30.wav,,,,,4,7,147,24,,,,,,,,,,,,,,,left,0.602512121201,,,,,participant2,32,59.876714871,female,trial,2017_May_24_1541,
,,0.49,"[-2.25, 0]",/sounds/legit/left30.wav,,,,,4,8,148,23,,,,,,,,,,,,,,,left,0.434591054916,,,,,participant2,32,59.876714871,female,trial,2017_May_24_1541,
,,0.1,"[-6.75, 0]",/sounds/legit/left100.wav,,,,,4,9,149,30,,,,,,,,,,,,,,,left,0.385643005371,,,,,participant2,32,59.876714871,female,trial,2017_May_24_1541,
,,0.1,"[6.75, 0]",/sounds/legit/right100.wav,,,,,4,10,150,15,,,,,,,,,,,,,,,right,0.385551929474,,,,,participant2,32,59.876714871,female,trial,2017_May_24_1541,
,,0.62,"[2.25, 0]",/sounds/legit/right30.wav,,,,,4,11,151,9,,,,,,,,,,,,,,,right,0.468855857849,,,,,participant2,32,59.876714871,female,trial,2017_May_24_1541,
,,0.36,"[0, 0]",/sounds/legit/equal.wav,,,,,4,12,152,2,,,,,,,,,,,,,,,left,0.402223110199,,,,,participant2,32,59.876714871,female,trial,2017_May_24_1541,
,,0.23,"[6.75, 0]",/sounds/legit/right100.wav,,,,,4,13,153,16,,,,,,,,,,,,,,,right,0.134990930557,,,,,participant2,32,59.876714871,female,trial,2017_May_24_1541,
,,0.36,"[-2.25, 0]",/sounds/legit/left30.wav,,,,,4,14,154,22,,,,,,,,,,,,,,,left,0.402285814285,,,,,participant2,32,59.876714871,female,trial,2017_May_24_1541,
,,0.23,"[-4.5, 0]",/sounds/legit/left60.wav,,,,,4,15,155,26,,,,,,,,,,,,,,,left,0.335384130478,,,,,participant2,32,59.876714871,female,trial,2017_May_24_1541,
,,0.23,"[0, 0]",/sounds/legit/equal.wav,,,,,4,16,156,1,,,,,,,,,,,,,,,left,1.03680992126,,,,,participant2,32,59.876714871,female,trial,2017_May_24_1541,
,,0.62,"[4.5, 0]",/sounds/legit/right60.wav,,,,,4,17,157,14,,,,,,,,,,,,,,,right,0.402140855789,,,,,participant2,32,59.876714871,female,trial,2017_May_24_1541,
,,0.62,"[0, 0]",/sounds/legit/equal.wav,,,,,4,18,158,4,,,,,,,,,,,,,,,left,0.869863986969,,,,,participant2,32,59.876714871,female,trial,2017_May_24_1541,
,,0.36,"[-6.75, 0]",/sounds/legit/left100.wav,,,,,4,19,159,32,,,,,,,,,,,,,,,left,0.252295970917,,,,,participant2,32,59.876714871,female,trial,2017_May_24_1541,
,,0.36,"[4.5, 0]",/sounds/legit/right60.wav,,,,,4,20,160,12,,,,,,,,,,,,,,,right,0.569134950638,,,,,participant2,32,59.876714871,female,trial,2017_May_24_1541,
,,0.49,"[-6.75, 0]",/sounds/legit/left100.wav,,,,,4,21,161,33,,,,,,,,,,,,,,,left,0.435620069504,,,,,participant2,32,59.876714871,female,trial,2017_May_24_1541,
,,0.1,"[0, 0]",/sounds/legit/equal.wav,,,,,4,22,162,0,,,,,,,,,,,,,,,left,1.62178397179,,,,,participant2,32,59.876714871,female,trial,2017_May_24_1541,
,,0.62,"[-6.75, 0]",/sounds/legit/left100.wav,,,,,4,23,163,34,,,,,,,,,,,,,,,left,0.452281951904,,,,,participant2,32,59.876714871,female,trial,2017_May_24_1541,
,,0.23,"[-6.75, 0]",/sounds/legit/left100.wav,,,,,4,24,164,31,,,,,,,,,,,,,,,left,0.4187271595,,,,,participant2,32,59.876714871,female,trial,2017_May_24_1541,
,,0.1,"[4.5, 0]",/sounds/legit/right60.wav,,,,,4,25,165,10,,,,,,,,,,,,,,,right,0.0848309993744,,,,,participant2,32,59.876714871,female,trial,2017_May_24_1541,
,,0.1,"[-4.5, 0]",/sounds/legit/left60.wav,,,,,4,26,166,25,,,,,,,,,,,,,,,left,0.418714046478,,,,,participant2,32,59.876714871,female,trial,2017_May_24_1541,
,,0.36,"[6.75, 0]",/sounds/legit/right100.wav,,,,,4,27,167,17,,,,,,,,,,,,,,,right,0.134907960892,,,,,participant2,32,59.876714871,female,trial,2017_May_24_1541,
,,0.36,"[2.25, 0]",/sounds/legit/right30.wav,,,,,4,28,168,7,,,,,,,,,,,,,,,right,0.452244997025,,,,,participant2,32,59.876714871,female,trial,2017_May_24_1541,
,,0.23,"[2.25, 0]",/sounds/legit/right30.wav,,,,,4,29,169,6,,,,,,,,,,,,,,,right,0.201766967773,,,,,participant2,32,59.876714871,female,trial,2017_May_24_1541,
,,0.49,"[-4.5, 0]",/sounds/legit/left60.wav,,,,,4,30,170,28,,,,,,,,,,,,,,,left,0.268677949905,,,,,participant2,32,59.876714871,female,trial,2017_May_24_1541,
,,0.62,"[-4.5, 0]",/sounds/legit/left60.wav,,,,,4,31,171,29,,,,,,,,,,,,,,,left,0.686311006546,,,,,participant2,32,59.876714871,female,trial,2017_May_24_1541,
,,0.36,"[-4.5, 0]",/sounds/legit/left60.wav,,,,,4,32,172,27,,,,,,,,,,,,,,,left,0.201662778854,,,,,participant2,32,59.876714871,female,trial,2017_May_24_1541,
,,0.1,"[2.25, 0]",/sounds/legit/right30.wav,,,,,4,33,173,5,,,,,,,,,,,,,,,right,0.26867389679,,,,,participant2,32,59.876714871,female,trial,2017_May_24_1541,
,,0.23,"[4.5, 0]",/sounds/legit/right60.wav,,,,,4,34,174,11,,,,,,,,,,,,,,,right,0.101360797882,,,,,participant2,32,59.876714871,female,trial,2017_May_24_1541,
,,0.36,"[0, 0]",/sounds/legit/equal.wav,,,,,5,0,175,2,,,,,,,,,,,,,,,left,0.836595058441,,,,,participant2,32,59.876714871,female,trial,2017_May_24_1541,
,,0.23,"[4.5, 0]",/sounds/legit/right60.wav,,,,,5,1,176,11,,,,,,,,,,,,,,,right,0.301895856857,,,,,participant2,32,59.876714871,female,trial,2017_May_24_1541,
,,0.1,"[-4.5, 0]",/sounds/legit/left60.wav,,,,,5,2,177,25,,,,,,,,,,,,,,,left,0.535804033279,,,,,participant2,32,59.876714871,female,trial,2017_May_24_1541,
,,0.23,"[-6.75, 0]",/sounds/legit/left100.wav,,,,,5,3,178,31,,,,,,,,,,,,,,,left,0.368920087814,,,,,participant2,32,59.876714871,female,trial,2017_May_24_1541,
,,0.62,"[-4.5, 0]",/sounds/legit/left60.wav,,,,,5,4,179,29,,,,,,,,,,,,,,,left,0.619439125061,,,,,participant2,32,59.876714871,female,trial,2017_May_24_1541,
,,0.62,"[-2.25, 0]",/sounds/legit/left30.wav,,,,,5,5,180,24,,,,,,,,,,,,,,,left,0.419028997421,,,,,participant2,32,59.876714871,female,trial,2017_May_24_1541,
,,0.23,"[2.25, 0]",/sounds/legit/right30.wav,,,,,5,6,181,6,,,,,,,,,,,,,,,right,0.435436010361,,,,,participant2,32,59.876714871,female,trial,2017_May_24_1541,
,,0.1,"[4.5, 0]",/sounds/legit/right60.wav,,,,,5,7,182,10,,,,,,,,,,,,,,,right,0.385539054871,,,,,participant2,32,59.876714871,female,trial,2017_May_24_1541,
,,0.49,"[-6.75, 0]",/sounds/legit/left100.wav,,,,,5,8,183,33,,,,,,,,,,,,,,,left,0.635928153992,,,,,participant2,32,59.876714871,female,trial,2017_May_24_1541,
,,0.36,"[-6.75, 0]",/sounds/legit/left100.wav,,,,,5,9,184,32,,,,,,,,,,,,,,,left,0.252007961273,,,,,participant2,32,59.876714871,female,trial,2017_May_24_1541,
,,0.1,"[-6.75, 0]",/sounds/legit/left100.wav,,,,,5,10,185,30,,,,,,,,,,,,,,,left,0.302193880081,,,,,participant2,32,59.876714871,female,trial,2017_May_24_1541,
,,0.49,"[6.75, 0]",/sounds/legit/right100.wav,,,,,5,11,186,18,,,,,,,,,,,,,,,right,0.318655967712,,,,,participant2,32,59.876714871,female,trial,2017_May_24_1541,
,,0.36,"[-2.25, 0]",/sounds/legit/left30.wav,,,,,5,12,187,22,,,,,,,,,,,,,,,left,0.368995189667,,,,,participant2,32,59.876714871,female,trial,2017_May_24_1541,
,,0.36,"[2.25, 0]",/sounds/legit/right30.wav,,,,,5,13,188,7,,,,,,,,,,,,,,,right,0.352165937424,,,,,participant2,32,59.876714871,female,trial,2017_May_24_1541,
,,0.62,"[6.75, 0]",/sounds/legit/right100.wav,,,,,5,14,189,19,,,,,,,,,,,,,,,right,0.385739088058,,,,,participant2,32,59.876714871,female,trial,2017_May_24_1541,
,,0.1,"[0, 0]",/sounds/legit/equal.wav,,,,,5,15,190,0,,,,,,,,,,,,,,,left,0.519084215164,,,,,participant2,32,59.876714871,female,trial,2017_May_24_1541,
,,0.1,"[-2.25, 0]",/sounds/legit/left30.wav,,,,,5,16,191,20,,,,,,,,,,,,,,,left,0.368869066238,,,,,participant2,32,59.876714871,female,trial,2017_May_24_1541,
,,0.62,"[4.5, 0]",/sounds/legit/right60.wav,,,,,5,17,192,14,,,,,,,,,,,,,,,right,0.469273090363,,,,,participant2,32,59.876714871,female,trial,2017_May_24_1541,
,,0.1,"[2.25, 0]",/sounds/legit/right30.wav,,,,,5,18,193,5,,,,,,,,,,,,,,,right,0.285097837448,,,,,participant2,32,59.876714871,female,trial,2017_May_24_1541,
,,0.62,"[0, 0]",/sounds/legit/equal.wav,,,,,5,19,194,4,,,,,,,,,,,,,,,left,0.736428022385,,,,,participant2,32,59.876714871,female,trial,2017_May_24_1541,
,,0.49,"[0, 0]",/sounds/legit/equal.wav,,,,,5,20,195,3,,,,,,,,,,,,,,,left,0.468904972076,,,,,participant2,32,59.876714871,female,trial,2017_May_24_1541,
,,0.49,"[2.25, 0]",/sounds/legit/right30.wav,,,,,5,21,196,8,,,,,,,,,,,,,,,right,0.569108963013,,,,,participant2,32,59.876714871,female,trial,2017_May_24_1541,
,,0.62,"[2.25, 0]",/sounds/legit/right30.wav,,,,,5,22,197,9,,,,,,,,,,,,,,,right,0.235221147537,,,,,participant2,32,59.876714871,female,trial,2017_May_24_1541,
,,0.23,"[-2.25, 0]",/sounds/legit/left30.wav,,,,,5,23,198,21,,,,,,,,,,,,,,,left,0.551468133926,,,,,participant2,32,59.876714871,female,trial,2017_May_24_1541,
,,0.23,"[6.75, 0]",/sounds/legit/right100.wav,,,,,5,24,199,16,,,,,,,,,,,,,,,right,0.251988172531,,,,,participant2,32,59.876714871,female,trial,2017_May_24_1541,
,,0.49,"[-2.25, 0]",/sounds/legit/left30.wav,,,,,5,25,200,23,,,,,,,,,,,,,,,left,0.285352945328,,,,,participant2,32,59.876714871,female,trial,2017_May_24_1541,
,,0.23,"[-4.5, 0]",/sounds/legit/left60.wav,,,,,5,26,201,26,,,,,,,,,,,,,,,left,0.268612146378,,,,,participant2,32,59.876714871,female,trial,2017_May_24_1541,
,,0.36,"[6.75, 0]",/sounds/legit/right100.wav,,,,,5,27,202,17,,,,,,,,,,,,,,,right,0.201949834824,,,,,participant2,32,59.876714871,female,trial,2017_May_24_1541,
,,0.1,"[6.75, 0]",/sounds/legit/right100.wav,,,,,5,28,203,15,,,,,,,,,,,,,,,right,0.41876912117,,,,,participant2,32,59.876714871,female,trial,2017_May_24_1541,
,,0.62,"[-6.75, 0]",/sounds/legit/left100.wav,,,,,5,29,204,34,,,,,,,,,,,,,,,left,0.402220010757,,,,,participant2,32,59.876714871,female,trial,2017_May_24_1541,
,,0.49,"[-4.5, 0]",/sounds/legit/left60.wav,,,,,5,30,205,28,,,,,,,,,,,,,,,left,0.134928941727,,,,,participant2,32,59.876714871,female,trial,2017_May_24_1541,
,,0.23,"[0, 0]",/sounds/legit/equal.wav,,,,,5,31,206,1,,,,,,,,,,,,,,,left,0.669595003128,,,,,participant2,32,59.876714871,female,trial,2017_May_24_1541,
,,0.36,"[4.5, 0]",/sounds/legit/right60.wav,,,,,5,32,207,12,,,,,,,,,,,,,,,right,0.218337059021,,,,,participant2,32,59.876714871,female,trial,2017_May_24_1541,
,,0.49,"[4.5, 0]",/sounds/legit/right60.wav,,,,,5,33,208,13,,,,,,,,,,,,,,,right,0.285306930542,,,,,participant2,32,59.876714871,female,trial,2017_May_24_1541,
,,0.36,"[-4.5, 0]",/sounds/legit/left60.wav,,,,,5,34,209,27,,,,,,,,,,,,,,,left,0.317853927612,,,,,participant2,32,59.876714871,female,trial,2017_May_24_1541,
,,0.36,"[4.5, 0]",/sounds/legit/right60.wav,,,,,6,0,210,12,,,,,,,,,,,,,,,right,0.00135397911072,,,,,participant2,32,59.876714871,female,trial,2017_May_24_1541,
,,0.49,"[-6.75, 0]",/sounds/legit/left100.wav,,,,,6,1,211,33,,,,,,,,,,,,,,,left,0.352074146271,,,,,participant2,32,59.876714871,female,trial,2017_May_24_1541,
,,0.62,"[0, 0]",/sounds/legit/equal.wav,,,,,6,2,212,4,,,,,,,,,,,,,,,right,1.27079391479,,,,,participant2,32,59.876714871,female,trial,2017_May_24_1541,
,,0.49,"[-2.25, 0]",/sounds/legit/left30.wav,,,,,6,3,213,23,,,,,,,,,,,,,,,left,0.0840790271759,,,,,participant2,32,59.876714871,female,trial,2017_May_24_1541,
,,0.49,"[0, 0]",/sounds/legit/equal.wav,,,,,6,4,214,3,,,,,,,,,,,,,,,left,0.518363952637,,,,,participant2,32,59.876714871,female,trial,2017_May_24_1541,
,,0.23,"[6.75, 0]",/sounds/legit/right100.wav,,,,,6,5,215,16,,,,,,,,,,,,,,,right,0.068158864975,,,,,participant2,32,59.876714871,female,trial,2017_May_24_1541,
,,0.62,"[4.5, 0]",/sounds/legit/right60.wav,,,,,6,6,216,14,,,,,,,,,,,,,,,right,0.452466964722,,,,,participant2,32,59.876714871,female,trial,2017_May_24_1541,
,,0.1,"[-4.5, 0]",/sounds/legit/left60.wav,,,,,6,7,217,25,,,,,,,,,,,,,,,left,0.268618106842,,,,,participant2,32,59.876714871,female,trial,2017_May_24_1541,
,,0.1,"[2.25, 0]",/sounds/legit/right30.wav,,,,,6,8,218,5,,,,,,,,,,,,,,,right,0.00145077705383,,,,,participant2,32,59.876714871,female,trial,2017_May_24_1541,
,,0.23,"[-2.25, 0]",/sounds/legit/left30.wav,,,,,6,9,219,21,,,,,,,,,,,,,,,left,1.47107791901,,,,,participant2,32,59.876714871,female,trial,2017_May_24_1541,
,,0.23,"[-4.5, 0]",/sounds/legit/left60.wav,,,,,6,10,220,26,,,,,,,,,,,,,,,left,0.368902921677,,,,,participant2,32,59.876714871,female,trial,2017_May_24_1541,
,,0.23,"[4.5, 0]",/sounds/legit/right60.wav,,,,,6,11,221,11,,,,,,,,,,,,,,,right,0.569076061249,,,,,participant2,32,59.876714871,female,trial,2017_May_24_1541,
,,0.62,"[-2.25, 0]",/sounds/legit/left30.wav,,,,,6,12,222,24,,,,,,,,,,,,,,,left,0.318769931793,,,,,participant2,32,59.876714871,female,trial,2017_May_24_1541,
,,0.23,"[2.25, 0]",/sounds/legit/right30.wav,,,,,6,13,223,6,,,,,,,,,,,,,,,right,0.134979009628,,,,,participant2,32,59.876714871,female,trial,2017_May_24_1541,
,,0.36,"[6.75, 0]",/sounds/legit/right100.wav,,,,,6,14,224,17,,,,,,,,,,,,,,,right,0.0505428314209,,,,,participant2,32,59.876714871,female,trial,2017_May_24_1541,
,,0.1,"[-6.75, 0]",/sounds/legit/left100.wav,,,,,6,15,225,30,,,,,,,,,,,,,,,left,0.0681238174438,,,,,participant2,32,59.876714871,female,trial,2017_May_24_1541,
,,0.23,"[0, 0]",/sounds/legit/equal.wav,,,,,6,16,226,1,,,,,,,,,,,,,,,left,0.719743013382,,,,,participant2,32,59.876714871,female,trial,2017_May_24_1541,
,,0.62,"[-4.5, 0]",/sounds/legit/left60.wav,,,,,6,17,227,29,,,,,,,,,,,,,,,left,0.435530900955,,,,,participant2,32,59.876714871,female,trial,2017_May_24_1541,
,,0.23,"[-6.75, 0]",/sounds/legit/left100.wav,,,,,6,18,228,31,,,,,,,,,,,,,,,left,0.385609865189,,,,,participant2,32,59.876714871,female,trial,2017_May_24_1541,
,,0.1,"[6.75, 0]",/sounds/legit/right100.wav,,,,,6,19,229,15,,,,,,,,,,,,,,,right,0.251661062241,,,,,participant2,32,59.876714871,female,trial,2017_May_24_1541,
,,0.62,"[6.75, 0]",/sounds/legit/right100.wav,,,,,6,20,230,19,,,,,,,,,,,,,,,right,0.23517203331,,,,,participant2,32,59.876714871,female,trial,2017_May_24_1541,
,,0.62,"[-6.75, 0]",/sounds/legit/left100.wav,,,,,6,21,231,34,,,,,,,,,,,,,,,left,0.385624885559,,,,,participant2,32,59.876714871,female,trial,2017_May_24_1541,
,,0.62,"[2.25, 0]",/sounds/legit/right30.wav,,,,,6,22,232,9,,,,,,,,,,,,,,,right,0.452590942383,,,,,participant2,32,59.876714871,female,trial,2017_May_24_1541,
,,0.49,"[4.5, 0]",/sounds/legit/right60.wav,,,,,6,23,233,13,,,,,,,,,,,,,,,right,0.0503540039062,,,,,participant2,32,59.876714871,female,trial,2017_May_24_1541,
,,0.36,"[-2.25, 0]",/sounds/legit/left30.wav,,,,,6,24,234,22,,,,,,,,,,,,,,,left,0.268648862839,,,,,participant2,32,59.876714871,female,trial,2017_May_24_1541,
,,0.49,"[-4.5, 0]",/sounds/legit/left60.wav,,,,,6,25,235,28,,,,,,,,,,,,,,,left,0.302182912827,,,,,participant2,32,59.876714871,female,trial,2017_May_24_1541,
,,0.1,"[-2.25, 0]",/sounds/legit/left30.wav,,,,,6,26,236,20,,,,,,,,,,,,,,,left,0.36874294281,,,,,participant2,32,59.876714871,female,trial,2017_May_24_1541,
,,0.36,"[2.25, 0]",/sounds/legit/right30.wav,,,,,6,27,237,7,,,,,,,,,,,,,,,right,0.034686088562,,,,,participant2,32,59.876714871,female,trial,2017_May_24_1541,
,,0.49,"[6.75, 0]",/sounds/legit/right100.wav,,,,,6,28,238,18,,,,,,,,,,,,,,,right,0.535727977753,,,,,participant2,32,59.876714871,female,trial,2017_May_24_1541,
,,0.36,"[-4.5, 0]",/sounds/legit/left60.wav,,,,,6,29,239,27,,,,,,,,,,,,,,,left,0.385348081589,,,,,participant2,32,59.876714871,female,trial,2017_May_24_1541,
,,0.1,"[0, 0]",/sounds/legit/equal.wav,,,,,6,30,240,0,,,,,,,,,,,,,,,left,1.50461983681,,,,,participant2,32,59.876714871,female,trial,2017_May_24_1541,
,,0.1,"[4.5, 0]",/sounds/legit/right60.wav,,,,,6,31,241,10,,,,,,,,,,,,,,,right,0.151699781418,,,,,participant2,32,59.876714871,female,trial,2017_May_24_1541,
,,0.36,"[0, 0]",/sounds/legit/equal.wav,,,,,6,32,242,2,,,,,,,,,,,,,,,left,0.535914897919,,,,,participant2,32,59.876714871,female,trial,2017_May_24_1541,
,,0.36,"[-6.75, 0]",/sounds/legit/left100.wav,,,,,6,33,243,32,,,,,,,,,,,,,,,left,0.418902158737,,,,,participant2,32,59.876714871,female,trial,2017_May_24_1541,
,,0.49,"[2.25, 0]",/sounds/legit/right30.wav,,,,,6,34,244,8,,,,,,,,,,,,,,,right,0.569133996964,,,,,participant2,32,59.876714871,female,trial,2017_May_24_1541,
,,0.1,"[4.5, 0]",/sounds/legit/right60.wav,,,,,7,0,245,10,,,,,,,,,,,,,,,right,0.302095890045,,,,,participant2,32,59.876714871,female,trial,2017_May_24_1541,
,,0.23,"[0, 0]",/sounds/legit/equal.wav,,,,,7,1,246,1,,,,,,,,,,,,,,,left,0.535809993744,,,,,participant2,32,59.876714871,female,trial,2017_May_24_1541,
,,0.49,"[-2.25, 0]",/sounds/legit/left30.wav,,,,,7,2,247,23,,,,,,,,,,,,,,,left,0.602431058884,,,,,participant2,32,59.876714871,female,trial,2017_May_24_1541,
,,0.49,"[6.75, 0]",/sounds/legit/right100.wav,,,,,7,3,248,18,,,,,,,,,,,,,,,right,0.419198036194,,,,,participant2,32,59.876714871,female,trial,2017_May_24_1541,
,,0.62,"[-6.75, 0]",/sounds/legit/left100.wav,,,,,7,4,249,34,,,,,,,,,,,,,,,left,0.60257601738,,,,,participant2,32,59.876714871,female,trial,2017_May_24_1541,
,,0.36,"[4.5, 0]",/sounds/legit/right60.wav,,,,,7,5,250,12,,,,,,,,,,,,,,,right,0.335561037064,,,,,participant2,32,59.876714871,female,trial,2017_May_24_1541,
,,0.62,"[2.25, 0]",/sounds/legit/right30.wav,,,,,7,6,251,9,,,,,,,,,,,,,,,right,0.285387039185,,,,,participant2,32,59.876714871,female,trial,2017_May_24_1541,
,,0.36,"[0, 0]",/sounds/legit/equal.wav,,,,,7,7,252,2,,,,,,,,,,,,,,,right,3.05794286728,,,,,participant2,32,59.876714871,female,trial,2017_May_24_1541,
,,0.62,"[4.5, 0]",/sounds/legit/right60.wav,,,,,7,8,253,14,,,,,,,,,,,,,,,right,0.0680041313171,,,,,participant2,32,59.876714871,female,trial,2017_May_24_1541,
,,0.23,"[-2.25, 0]",/sounds/legit/left30.wav,,,,,7,9,254,21,,,,,,,,,,,,,,,left,0.251857995987,,,,,participant2,32,59.876714871,female,trial,2017_May_24_1541,
,,0.23,"[-4.5, 0]",/sounds/legit/left60.wav,,,,,7,10,255,26,,,,,,,,,,,,,,,left,0.385376214981,,,,,participant2,32,59.876714871,female,trial,2017_May_24_1541,
,,0.1,"[-2.25, 0]",/sounds/legit/left30.wav,,,,,7,11,256,20,,,,,,,,,,,,,,,left,0.151497840881,,,,,participant2,32,59.876714871,female,trial,2017_May_24_1541,
,,0.36,"[-4.5, 0]",/sounds/legit/left60.wav,,,,,7,12,257,27,,,,,,,,,,,,,,,left,0.00133013725281,,,,,participant2,32,59.876714871,female,trial,2017_May_24_1541,
,,0.1,"[-4.5, 0]",/sounds/legit/left60.wav,,,,,7,13,258,25,,,,,,,,,,,,,,,left,0.234927892685,,,,,participant2,32,59.876714871,female,trial,2017_May_24_1541,
,,0.1,"[2.25, 0]",/sounds/legit/right30.wav,,,,,7,14,259,5,,,,,,,,,,,,,,,right,0.16819691658,,,,,participant2,32,59.876714871,female,trial,2017_May_24_1541,
,,0.62,"[-2.25, 0]",/sounds/legit/left30.wav,,,,,7,15,260,24,,,,,,,,,,,,,,,left,0.235707998276,,,,,participant2,32,59.876714871,female,trial,2017_May_24_1541,
,,0.62,"[6.75, 0]",/sounds/legit/right100.wav,,,,,7,16,261,19,,,,,,,,,,,,,,,right,0.151633024216,,,,,participant2,32,59.876714871,female,trial,2017_May_24_1541,
,,0.36,"[6.75, 0]",/sounds/legit/right100.wav,,,,,7,17,262,17,,,,,,,,,,,,,,,right,0.135082006454,,,,,participant2,32,59.876714871,female,trial,2017_May_24_1541,
,,0.49,"[-4.5, 0]",/sounds/legit/left60.wav,,,,,7,18,263,28,,,,,,,,,,,,,,,left,0.235301017761,,,,,participant2,32,59.876714871,female,trial,2017_May_24_1541,
,,0.49,"[4.5, 0]",/sounds/legit/right60.wav,,,,,7,19,264,13,,,,,,,,,,,,,,,right,0.101494073868,,,,,participant2,32,59.876714871,female,trial,2017_May_24_1541,
,,0.36,"[2.25, 0]",/sounds/legit/right30.wav,,,,,7,20,265,7,,,,,,,,,,,,,,,right,0.48556804657,,,,,participant2,32,59.876714871,female,trial,2017_May_24_1541,
,,0.62,"[0, 0]",/sounds/legit/equal.wav,,,,,7,21,266,4,,,,,,,,,,,,,,,left,0.736204147339,,,,,participant2,32,59.876714871,female,trial,2017_May_24_1541,
,,0.1,"[0, 0]",/sounds/legit/equal.wav,,,,,7,22,267,0,,,,,,,,,,,,,,,left,0.636199951172,,,,,participant2,32,59.876714871,female,trial,2017_May_24_1541,
,,0.49,"[0, 0]",/sounds/legit/equal.wav,,,,,7,23,268,3,,,,,,,,,,,,,,,left,0.652580976486,,,,,participant2,32,59.876714871,female,trial,2017_May_24_1541,
,,0.23,"[2.25, 0]",/sounds/legit/right30.wav,,,,,7,24,269,6,,,,,,,,,,,,,,,right,0.218842029572,,,,,participant2,32,59.876714871,female,trial,2017_May_24_1541,
,,0.23,"[-6.75, 0]",/sounds/legit/left100.wav,,,,,7,25,270,31,,,,,,,,,,,,,,,left,0.151662111282,,,,,participant2,32,59.876714871,female,trial,2017_May_24_1541,
,,0.1,"[6.75, 0]",/sounds/legit/right100.wav,,,,,7,26,271,15,,,,,,,,,,,,,,,right,0.200673818588,,,,,participant2,32,59.876714871,female,trial,2017_May_24_1541,
,,0.36,"[-2.25, 0]",/sounds/legit/left30.wav,,,,,7,27,272,22,,,,,,,,,,,,,,,left,0.23558306694,,,,,participant2,32,59.876714871,female,trial,2017_May_24_1541,
,,0.49,"[-6.75, 0]",/sounds/legit/left100.wav,,,,,7,28,273,33,,,,,,,,,,,,,,,left,0.28518986702,,,,,participant2,32,59.876714871,female,trial,2017_May_24_1541,
,,0.49,"[2.25, 0]",/sounds/legit/right30.wav,,,,,7,29,274,8,,,,,,,,,,,,,,,right,0.0839469432831,,,,,participant2,32,59.876714871,female,trial,2017_May_24_1541,
,,0.36,"[-6.75, 0]",/sounds/legit/left100.wav,,,,,7,30,275,32,,,,,,,,,,,,,,,left,0.168121814728,,,,,participant2,32,59.876714871,female,trial,2017_May_24_1541,
,,0.1,"[-6.75, 0]",/sounds/legit/left100.wav,,,,,7,31,276,30,,,,,,,,,,,,,,,left,0.335369110107,,,,,participant2,32,59.876714871,female,trial,2017_May_24_1541,
,,0.23,"[6.75, 0]",/sounds/legit/right100.wav,,,,,7,32,277,16,,,,,,,,,,,,,,,right,0.151757001877,,,,,participant2,32,59.876714871,female,trial,2017_May_24_1541,
,,0.23,"[4.5, 0]",/sounds/legit/right60.wav,,,,,7,33,278,11,,,,,,,,,,,,,,,right,0.151687860489,,,,,participant2,32,59.876714871,female,trial,2017_May_24_1541,
,,0.62,"[-4.5, 0]",/sounds/legit/left60.wav,,,,,7,34,279,29,,,,,,,,,,,,,,,left,0.268777132034,,,,,participant2,32,59.876714871,female,trial,2017_May_24_1541,
,,0.49,"[-2.25, 0]",/sounds/legit/left30.wav,,,,,8,0,280,23,,,,,,,,,,,,,,,left,0.218433856964,,,,,participant2,32,59.876714871,female,trial,2017_May_24_1541,
,,0.62,"[-4.5, 0]",/sounds/legit/left60.wav,,,,,8,1,281,29,,,,,,,,,,,,,,,left,0.21862912178,,,,,participant2,32,59.876714871,female,trial,2017_May_24_1541,
,,0.62,"[-2.25, 0]",/sounds/legit/left30.wav,,,,,8,2,282,24,,,,,,,,,,,,,,,left,0.352262973785,,,,,participant2,32,59.876714871,female,trial,2017_May_24_1541,
,,0.49,"[-4.5, 0]",/sounds/legit/left60.wav,,,,,8,3,283,28,,,,,,,,,,,,,,,left,0.33545589447,,,,,participant2,32,59.876714871,female,trial,2017_May_24_1541,
,,0.23,"[-4.5, 0]",/sounds/legit/left60.wav,,,,,8,4,284,26,,,,,,,,,,,,,,,left,0.26868891716,,,,,participant2,32,59.876714871,female,trial,2017_May_24_1541,
,,0.1,"[-6.75, 0]",/sounds/legit/left100.wav,,,,,8,5,285,30,,,,,,,,,,,,,,,left,0.302049160004,,,,,participant2,32,59.876714871,female,trial,2017_May_24_1541,
,,0.1,"[0, 0]",/sounds/legit/equal.wav,,,,,8,6,286,0,,,,,,,,,,,,,,,left,2.35641813278,,,,,participant2,32,59.876714871,female,trial,2017_May_24_1541,
,,0.23,"[4.5, 0]",/sounds/legit/right60.wav,,,,,8,7,287,11,,,,,,,,,,,,,,,right,0.0347859859467,,,,,participant2,32,59.876714871,female,trial,2017_May_24_1541,
,,0.49,"[0, 0]",/sounds/legit/equal.wav,,,,,8,8,288,3,,,,,,,,,,,,,,,left,0.55261182785,,,,,participant2,32,59.876714871,female,trial,2017_May_24_1541,
,,0.62,"[2.25, 0]",/sounds/legit/right30.wav,,,,,8,9,289,9,,,,,,,,,,,,,,,right,0.135133981705,,,,,participant2,32,59.876714871,female,trial,2017_May_24_1541,
,,0.62,"[4.5, 0]",/sounds/legit/right60.wav,,,,,8,10,290,14,,,,,,,,,,,,,,,right,0.201827049255,,,,,participant2,32,59.876714871,female,trial,2017_May_24_1541,
,,0.36,"[2.25, 0]",/sounds/legit/right30.wav,,,,,8,11,291,7,,,,,,,,,,,,,,,right,0.15180015564,,,,,participant2,32,59.876714871,female,trial,2017_May_24_1541,
,,0.23,"[-2.25, 0]",/sounds/legit/left30.wav,,,,,8,12,292,21,,,,,,,,,,,,,,,left,0.034747838974,,,,,participant2,32,59.876714871,female,trial,2017_May_24_1541,
,,0.1,"[6.75, 0]",/sounds/legit/right100.wav,,,,,8,13,293,15,,,,,,,,,,,,,,,right,0.0681781768799,,,,,participant2,32,59.876714871,female,trial,2017_May_24_1541,
,,0.49,"[-6.75, 0]",/sounds/legit/left100.wav,,,,,8,14,294,33,,,,,,,,,,,,,,,left,0.418800830841,,,,,participant2,32,59.876714871,female,trial,2017_May_24_1541,
,,0.36,"[-4.5, 0]",/sounds/legit/left60.wav,,,,,8,15,295,27,,,,,,,,,,,,,,,left,0.268342971802,,,,,participant2,32,59.876714871,female,trial,2017_May_24_1541,
,,0.36,"[6.75, 0]",/sounds/legit/right100.wav,,,,,8,16,296,17,,,,,,,,,,,,,,,right,0.101723194122,,,,,participant2,32,59.876714871,female,trial,2017_May_24_1541,
,,0.36,"[-6.75, 0]",/sounds/legit/left100.wav,,,,,8,17,297,32,,,,,,,,,,,,,,,left,0.151679992676,,,,,participant2,32,59.876714871,female,trial,2017_May_24_1541,
,,0.23,"[-6.75, 0]",/sounds/legit/left100.wav,,,,,8,18,298,31,,,,,,,,,,,,,,,left,0.185186862946,,,,,participant2,32,59.876714871,female,trial,2017_May_24_1541,
,,0.23,"[0, 0]",/sounds/legit/equal.wav,,,,,8,19,299,1,,,,,,,,,,,,,,,left,0.585935115814,,,,,participant2,32,59.876714871,female,trial,2017_May_24_1541,
,,0.62,"[-6.75, 0]",/sounds/legit/left100.wav,,,,,8,20,300,34,,,,,,,,,,,,,,,left,0.452183961868,,,,,participant2,32,59.876714871,female,trial,2017_May_24_1541,
,,0.1,"[2.25, 0]",/sounds/legit/right30.wav,,,,,8,21,301,5,,,,,,,,,,,,,,,right,9.58858799934,,,,,participant2,32,59.876714871,female,trial,2017_May_24_1541,
,,0.49,"[4.5, 0]",/sounds/legit/right60.wav,,,,,8,22,302,13,,,,,,,,,,,,,,,right,0.853229045868,,,,,participant2,32,59.876714871,female,trial,2017_May_24_1541,
,,0.62,"[6.75, 0]",/sounds/legit/right100.wav,,,,,8,23,303,19,,,,,,,,,,,,,,,right,0.469055891037,,,,,participant2,32,59.876714871,female,trial,2017_May_24_1541,
,,0.1,"[4.5, 0]",/sounds/legit/right60.wav,,,,,8,24,304,10,,,,,,,,,,,,,,,right,0.101522922516,,,,,participant2,32,59.876714871,female,trial,2017_May_24_1541,
,,0.23,"[2.25, 0]",/sounds/legit/right30.wav,,,,,8,25,305,6,,,,,,,,,,,,,,,right,0.451962947845,,,,,participant2,32,59.876714871,female,trial,2017_May_24_1541,
,,0.49,"[6.75, 0]",/sounds/legit/right100.wav,,,,,8,26,306,18,,,,,,,,,,,,,,,right,0.185175895691,,,,,participant2,32,59.876714871,female,trial,2017_May_24_1541,
,,0.23,"[6.75, 0]",/sounds/legit/right100.wav,,,,,8,27,307,16,,,,,,,,,,,,,,,right,4.24389314651,,,,,participant2,32,59.876714871,female,trial,2017_May_24_1541,
,,0.36,"[-2.25, 0]",/sounds/legit/left30.wav,,,,,8,28,308,22,,,,,,,,,,,,,,,left,0.435382843018,,,,,participant2,32,59.876714871,female,trial,2017_May_24_1541,
,,0.36,"[0, 0]",/sounds/legit/equal.wav,,,,,8,29,309,2,,,,,,,,,,,,,,,left,0.886641025543,,,,,participant2,32,59.876714871,female,trial,2017_May_24_1541,
,,0.1,"[-2.25, 0]",/sounds/legit/left30.wav,,,,,8,30,310,20,,,,,,,,,,,,,,,left,0.251945018768,,,,,participant2,32,59.876714871,female,trial,2017_May_24_1541,
,,0.49,"[2.25, 0]",/sounds/legit/right30.wav,,,,,8,31,311,8,,,,,,,,,,,,,,,right,0.335474967957,,,,,participant2,32,59.876714871,female,trial,2017_May_24_1541,
,,0.36,"[4.5, 0]",/sounds/legit/right60.wav,,,,,8,32,312,12,,,,,,,,,,,,,,,right,0.13511300087,,,,,participant2,32,59.876714871,female,trial,2017_May_24_1541,
,,0.62,"[0, 0]",/sounds/legit/equal.wav,,,,,8,33,313,4,,,,,,,,,,,,,,,left,1.12056684494,,,,,participant2,32,59.876714871,female,trial,2017_May_24_1541,
,,0.1,"[-4.5, 0]",/sounds/legit/left60.wav,,,,,8,34,314,25,,,,,,,,,,,,,,,left,0.218569040298,,,,,participant2,32,59.876714871,female,trial,2017_May_24_1541,
,,0.23,"[4.5, 0]",/sounds/legit/right60.wav,,,,,9,0,315,11,,,,,,,,,,,,,,,right,0.0178990364075,,,,,participant2,32,59.876714871,female,trial,2017_May_24_1541,
,,0.49,"[-2.25, 0]",/sounds/legit/left30.wav,,,,,9,1,316,23,,,,,,,,,,,,,,,left,0.168516874313,,,,,participant2,32,59.876714871,female,trial,2017_May_24_1541,
,,0.23,"[0, 0]",/sounds/legit/equal.wav,,,,,9,2,317,1,,,,,,,,,,,,,,,left,0.502371072769,,,,,participant2,32,59.876714871,female,trial,2017_May_24_1541,
,,0.36,"[-2.25, 0]",/sounds/legit/left30.wav,,,,,9,3,318,22,,,,,,,,,,,,,,,left,0.134968042374,,,,,participant2,32,59.876714871,female,trial,2017_May_24_1541,
,,0.23,"[2.25, 0]",/sounds/legit/right30.wav,,,,,9,4,319,6,,,,,,,,,,,,,,,right,0.101721763611,,,,,participant2,32,59.876714871,female,trial,2017_May_24_1541,
,,0.49,"[4.5, 0]",/sounds/legit/right60.wav,,,,,9,5,320,13,,,,,,,,,,,,,,,right,0.101670026779,,,,,participant2,32,59.876714871,female,trial,2017_May_24_1541,
,,0.62,"[-4.5, 0]",/sounds/legit/left60.wav,,,,,9,6,321,29,,,,,,,,,,,,,,,left,0.218889951706,,,,,participant2,32,59.876714871,female,trial,2017_May_24_1541,
,,0.36,"[-4.5, 0]",/sounds/legit/left60.wav,,,,,9,7,322,27,,,,,,,,,,,,,,,left,0.168200016022,,,,,participant2,32,59.876714871,female,trial,2017_May_24_1541,
,,0.36,"[0, 0]",/sounds/legit/equal.wav,,,,,9,8,323,2,,,,,,,,,,,,,,,left,0.469074964523,,,,,participant2,32,59.876714871,female,trial,2017_May_24_1541,
,,0.1,"[-4.5, 0]",/sounds/legit/left60.wav,,,,,9,9,324,25,,,,,,,,,,,,,,,left,0.352665901184,,,,,participant2,32,59.876714871,female,trial,2017_May_24_1541,
,,0.36,"[-6.75, 0]",/sounds/legit/left100.wav,,,,,9,10,325,32,,,,,,,,,,,,,,,left,0.134882926941,,,,,participant2,32,59.876714871,female,trial,2017_May_24_1541,
,,0.1,"[-2.25, 0]",/sounds/legit/left30.wav,,,,,9,11,326,20,,,,,,,,,,,,,,,left,0.0519459247589,,,,,participant2,32,59.876714871,female,trial,2017_May_24_1541,
,,0.36,"[2.25, 0]",/sounds/legit/right30.wav,,,,,9,12,327,7,,,,,,,,,,,,,,,right,0.0178470611572,,,,,participant2,32,59.876714871,female,trial,2017_May_24_1541,
,,0.1,"[2.25, 0]",/sounds/legit/right30.wav,,,,,9,13,328,5,,,,,,,,,,,,,,,right,2.57364296913,,,,,participant2,32,59.876714871,female,trial,2017_May_24_1541,
,,0.49,"[2.25, 0]",/sounds/legit/right30.wav,,,,,9,14,329,8,,,,,,,,,,,,,,,right,0.335381031036,,,,,participant2,32,59.876714871,female,trial,2017_May_24_1541,
,,0.36,"[4.5, 0]",/sounds/legit/right60.wav,,,,,9,15,330,12,,,,,,,,,,,,,,,right,0.084685087204,,,,,participant2,32,59.876714871,female,trial,2017_May_24_1541,
,,0.49,"[0, 0]",/sounds/legit/equal.wav,,,,,9,16,331,3,,,,,,,,,,,,,,,left,1.05360198021,,,,,participant2,32,59.876714871,female,trial,2017_May_24_1541,
,,0.62,"[6.75, 0]",/sounds/legit/right100.wav,,,,,9,17,332,19,,,,,,,,,,,,,,,right,2.20602202415,,,,,participant2,32,59.876714871,female,trial,2017_May_24_1541,
,,0.23,"[-4.5, 0]",/sounds/legit/left60.wav,,,,,9,18,333,26,,,,,,,,,,,,,,,left,0.235337018967,,,,,participant2,32,59.876714871,female,trial,2017_May_24_1541,
,,0.23,"[-2.25, 0]",/sounds/legit/left30.wav,,,,,9,19,334,21,,,,,,,,,,,,,,,left,0.118375778198,,,,,participant2,32,59.876714871,female,trial,2017_May_24_1541,
,,0.49,"[6.75, 0]",/sounds/legit/right100.wav,,,,,9,20,335,18,,,,,,,,,,,,,,,right,0.185193061829,,,,,participant2,32,59.876714871,female,trial,2017_May_24_1541,
,,0.62,"[4.5, 0]",/sounds/legit/right60.wav,,,,,9,21,336,14,,,,,,,,,,,,,,,right,0.0848028659821,,,,,participant2,32,59.876714871,female,trial,2017_May_24_1541,
,,0.1,"[0, 0]",/sounds/legit/equal.wav,,,,,9,22,337,0,,,,,,,,,,,,,,,left,0.585746049881,,,,,participant2,32,59.876714871,female,trial,2017_May_24_1541,
,,0.1,"[-6.75, 0]",/sounds/legit/left100.wav,,,,,9,23,338,30,,,,,,,,,,,,,,,left,0.0848360061646,,,,,participant2,32,59.876714871,female,trial,2017_May_24_1541,
,,0.49,"[-4.5, 0]",/sounds/legit/left60.wav,,,,,9,24,339,28,,,,,,,,,,,,,,,left,0.13471698761,,,,,participant2,32,59.876714871,female,trial,2017_May_24_1541,
,,0.1,"[4.5, 0]",/sounds/legit/right60.wav,,,,,9,25,340,10,,,,,,,,,,,,,,,right,0.00146102905273,,,,,participant2,32,59.876714871,female,trial,2017_May_24_1541,
,,0.62,"[-2.25, 0]",/sounds/legit/left30.wav,,,,,9,26,341,24,,,,,,,,,,,,,,,left,0.150552988052,,,,,participant2,32,59.876714871,female,trial,2017_May_24_1541,
,,0.62,"[2.25, 0]",/sounds/legit/right30.wav,,,,,9,27,342,9,,,,,,,,,,,,,,,right,0.435626983643,,,,,participant2,32,59.876714871,female,trial,2017_May_24_1541,
,,0.62,"[-6.75, 0]",/sounds/legit/left100.wav,,,,,9,28,343,34,,,,,,,,,,,,,,,left,0.56929397583,,,,,participant2,32,59.876714871,female,trial,2017_May_24_1541,
,,0.1,"[6.75, 0]",/sounds/legit/right100.wav,,,,,9,29,344,15,,,,,,,,,,,,,,,right,0.552471160889,,,,,participant2,32,59.876714871,female,trial,2017_May_24_1541,
,,0.23,"[6.75, 0]",/sounds/legit/right100.wav,,,,,9,30,345,16,,,,,,,,,,,,,,,right,0.118152856827,,,,,participant2,32,59.876714871,female,trial,2017_May_24_1541,
,,0.49,"[-6.75, 0]",/sounds/legit/left100.wav,,,,,9,31,346,33,,,,,,,,,,,,,,,left,0.402253866196,,,,,participant2,32,59.876714871,female,trial,2017_May_24_1541,
,,0.36,"[6.75, 0]",/sounds/legit/right100.wav,,,,,9,32,347,17,,,,,,,,,,,,,,,right,0.25233912468,,,,,participant2,32,59.876714871,female,trial,2017_May_24_1541,
,,0.23,"[-6.75, 0]",/sounds/legit/left100.wav,,,,,9,33,348,31,,,,,,,,,,,,,,,left,0.385348081589,,,,,participant2,32,59.876714871,female,trial,2017_May_24_1541,
,,0.62,"[0, 0]",/sounds/legit/equal.wav,,,,,9,34,349,4,,,,,,,,,,,,,,,left,0.636026859283,,,,,participant2,32,59.876714871,female,trial,2017_May_24_1541,
,,,,,,,,,,,,,,,,,,,,,,,,,,,,,space,53.200248003,,,participant2,32,59.876714871,female,trial,2017_May_24_1541,
,,0.23,"[-4.5, 0]",/sounds/legit/left60.wav,,,,,,,,,0,0,0,26,,,,,,,,,,,,,,,left,4.02680897713,participant2,32,59.876714871,female,trial,2017_May_24_1541,
,,0.1,"[6.75, 0]",/sounds/legit/right100.wav,,,,,,,,,0,1,1,15,,,,,,,,,,,,,,,right,0.735518932343,participant2,32,59.876714871,female,trial,2017_May_24_1541,
,,0.49,"[2.25, 0]",/sounds/legit/right30.wav,,,,,,,,,0,2,2,8,,,,,,,,,,,,,,,right,2.0892021656,participant2,32,59.876714871,female,trial,2017_May_24_1541,
,,0.23,"[6.75, 0]",/sounds/legit/right100.wav,,,,,,,,,0,3,3,16,,,,,,,,,,,,,,,right,0.251682043076,participant2,32,59.876714871,female,trial,2017_May_24_1541,
,,0.36,"[6.75, 0]",/sounds/legit/right100.wav,,,,,,,,,0,4,4,17,,,,,,,,,,,,,,,right,0.703115940094,participant2,32,59.876714871,female,trial,2017_May_24_1541,
,,0.36,"[6.75, 0]",/sounds/legit/right100.wav,,,,,,,,,0,5,5,17,,,,,,,,,,,,,,,right,0.26856803894,participant2,32,59.876714871,female,trial,2017_May_24_1541,
,,0.49,"[2.25, 0]",/sounds/legit/right30.wav,,,,,,,,,0,6,6,8,,,,,,,,,,,,,,,right,4.76171803474,participant2,32,59.876714871,female,trial,2017_May_24_1541,
,,0.1,"[-6.75, 0]",/sounds/legit/left100.wav,,,,,,,,,0,7,7,30,,,,,,,,,,,,,,,left,1.12040710449,participant2,32,59.876714871,female,trial,2017_May_24_1541,
,,0.23,"[0, 0]",/sounds/legit/equal.wav,,,,,,,,,0,8,8,1,,,,,,,,,,,,,,,right,1.95568704605,participant2,32,59.876714871,female,trial,2017_May_24_1541,
,,0.36,"[4.5, 0]",/sounds/legit/right60.wav,,,,,,,,,0,9,9,12,,,,,,,,,,,,,,,right,0.418851852417,participant2,32,59.876714871,female,trial,2017_May_24_1541,
,,0.36,"[0, 0]",/sounds/legit/equal.wav,,,,,,,,,0,10,10,2,,,,,,,,,,,,,,,right,2.03880405426,participant2,32,59.876714871,female,trial,2017_May_24_1541,
,,0.36,"[6.75, 0]",/sounds/legit/right100.wav,,,,,,,,,0,11,11,17,,,,,,,,,,,,,,,right,0.335181951523,participant2,32,59.876714871,female,trial,2017_May_24_1541,
,,0.1,"[6.75, 0]",/sounds/legit/right100.wav,,,,,,,,,0,12,12,15,,,,,,,,,,,,,,,right,0.552447080612,participant2,32,59.876714871,female,trial,2017_May_24_1541,
,,0.62,"[6.75, 0]",/sounds/legit/right100.wav,,,,,,,,,0,13,13,19,,,,,,,,,,,,,,,right,0.501429080963,participant2,32,59.876714871,female,trial,2017_May_24_1541,
,,0.23,"[-6.75, 0]",/sounds/legit/left100.wav,,,,,,,,,0,14,14,31,,,,,,,,,,,,,,,left,0.853363990784,participant2,32,59.876714871,female,trial,2017_May_24_1541,
,,0.23,"[4.5, 0]",/sounds/legit/right60.wav,,,,,,,,,0,15,15,11,,,,,,,,,,,,,,,right,0.252107858658,participant2,32,59.876714871,female,trial,2017_May_24_1541,
,,0.62,"[-2.25, 0]",/sounds/legit/left30.wav,,,,,,,,,0,16,16,24,,,,,,,,,,,,,,,left,2.64032196999,participant2,32,59.876714871,female,trial,2017_May_24_1541,
,,0.62,"[2.25, 0]",/sounds/legit/right30.wav,,,,,,,,,0,17,17,9,,,,,,,,,,,,,,,right,2.27347397804,participant2,32,59.876714871,female,trial,2017_May_24_1541,
,,0.36,"[4.5, 0]",/sounds/legit/right60.wav,,,,,,,,,0,18,18,12,,,,,,,,,,,,,,,right,0.068375825882,participant2,32,59.876714871,female,trial,2017_May_24_1541,
,,0.62,"[2.25, 0]",/sounds/legit/right30.wav,,,,,,,,,0,19,19,9,,,,,,,,,,,,,,,right,1.28752207756,participant2,32,59.876714871,female,trial,2017_May_24_1541,
,,0.49,"[-6.75, 0]",/sounds/legit/left100.wav,,,,,,,,,0,20,20,33,,,,,,,,,,,,,,,left,0.602787017822,participant2,32,59.876714871,female,trial,2017_May_24_1541,
,,0.62,"[6.75, 0]",/sounds/legit/right100.wav,,,,,,,,,0,21,21,19,,,,,,,,,,,,,,,right,0.402567863464,participant2,32,59.876714871,female,trial,2017_May_24_1541,
,,0.23,"[0, 0]",/sounds/legit/equal.wav,,,,,,,,,0,22,22,1,,,,,,,,,,,,,,,right,0.786498069763,participant2,32,59.876714871,female,trial,2017_May_24_1541,
,,0.36,"[6.75, 0]",/sounds/legit/right100.wav,,,,,,,,,0,23,23,17,,,,,,,,,,,,,,,right,0.602520942688,participant2,32,59.876714871,female,trial,2017_May_24_1541,
,,0.36,"[-4.5, 0]",/sounds/legit/left60.wav,,,,,,,,,0,24,24,27,,,,,,,,,,,,,,,left,0.802952051163,participant2,32,59.876714871,female,trial,2017_May_24_1541,
,,0.1,"[4.5, 0]",/sounds/legit/right60.wav,,,,,,,,,0,25,25,10,,,,,,,,,,,,,,,right,0.719652891159,participant2,32,59.876714871,female,trial,2017_May_24_1541,
,,0.62,"[0, 0]",/sounds/legit/equal.wav,,,,,,,,,0,26,26,4,,,,,,,,,,,,,,,right,1.42128396034,participant2,32,59.876714871,female,trial,2017_May_24_1541,
,,0.23,"[4.5, 0]",/sounds/legit/right60.wav,,,,,,,,,0,27,27,11,,,,,,,,,,,,,,,right,0.602661132812,participant2,32,59.876714871,female,trial,2017_May_24_1541,
,,0.23,"[6.75, 0]",/sounds/legit/right100.wav,,,,,,,,,0,28,28,16,,,,,,,,,,,,,,,right,0.284986019135,participant2,32,59.876714871,female,trial,2017_May_24_1541,
,,0.62,"[2.25, 0]",/sounds/legit/right30.wav,,,,,,,,,0,29,29,9,,,,,,,,,,,,,,,right,1.52164196968,participant2,32,59.876714871,female,trial,2017_May_24_1541,
,,0.49,"[0, 0]",/sounds/legit/equal.wav,,,,,,,,,0,30,30,3,,,,,,,,,,,,,,,right,2.54023003578,participant2,32,59.876714871,female,trial,2017_May_24_1541,
,,0.23,"[2.25, 0]",/sounds/legit/right30.wav,,,,,,,,,0,31,31,6,,,,,,,,,,,,,,,right,0.61950302124,participant2,32,59.876714871,female,trial,2017_May_24_1541,
,,0.23,"[-4.5, 0]",/sounds/legit/left60.wav,,,,,,,,,0,32,32,26,,,,,,,,,,,,,,,left,0.920028209686,participant2,32,59.876714871,female,trial,2017_May_24_1541,
,,0.36,"[-4.5, 0]",/sounds/legit/left60.wav,,,,,,,,,0,33,33,27,,,,,,,,,,,,,,,left,0.28546500206,participant2,32,59.876714871,female,trial,2017_May_24_1541,
,,0.49,"[4.5, 0]",/sounds/legit/right60.wav,,,,,,,,,0,34,34,13,,,,,,,,,,,,,,,right,0.235075950623,participant2,32,59.876714871,female,trial,2017_May_24_1541,
,,0.49,"[-6.75, 0]",/sounds/legit/left100.wav,,,,,,,,,1,0,35,33,,,,,,,,,,,,,,,left,0.285384893417,participant2,32,59.876714871,female,trial,2017_May_24_1541,
,,0.62,"[-2.25, 0]",/sounds/legit/left30.wav,,,,,,,,,1,1,36,24,,,,,,,,,,,,,,,left,1.28737902641,participant2,32,59.876714871,female,trial,2017_May_24_1541,
,,0.23,"[2.25, 0]",/sounds/legit/right30.wav,,,,,,,,,1,2,37,6,,,,,,,,,,,,,,,right,0.419010162354,participant2,32,59.876714871,female,trial,2017_May_24_1541,
,,0.62,"[4.5, 0]",/sounds/legit/right60.wav,,,,,,,,,1,3,38,14,,,,,,,,,,,,,,,right,0.41888999939,participant2,32,59.876714871,female,trial,2017_May_24_1541,
,,0.62,"[-4.5, 0]",/sounds/legit/left60.wav,,,,,,,,,1,4,39,29,,,,,,,,,,,,,,,left,0.468949079514,participant2,32,59.876714871,female,trial,2017_May_24_1541,
,,0.1,"[0, 0]",/sounds/legit/equal.wav,,,,,,,,,1,5,40,0,,,,,,,,,,,,,,,right,0.48585486412,participant2,32,59.876714871,female,trial,2017_May_24_1541,
,,0.1,"[2.25, 0]",/sounds/legit/right30.wav,,,,,,,,,1,6,41,5,,,,,,,,,,,,,,,right,0.469325065613,participant2,32,59.876714871,female,trial,2017_May_24_1541,
,,0.23,"[-4.5, 0]",/sounds/legit/left60.wav,,,,,,,,,1,7,42,26,,,,,,,,,,,,,,,left,0.335584163666,participant2,32,59.876714871,female,trial,2017_May_24_1541,
,,0.49,"[-4.5, 0]",/sounds/legit/left60.wav,,,,,,,,,1,8,43,28,,,,,,,,,,,,,,,left,0.302036046982,participant2,32,59.876714871,female,trial,2017_May_24_1541,
,,0.36,"[-2.25, 0]",/sounds/legit/left30.wav,,,,,,,,,1,9,44,22,,,,,,,,,,,,,,,left,0.418750047684,participant2,32,59.876714871,female,trial,2017_May_24_1541,
,,0.36,"[-4.5, 0]",/sounds/legit/left60.wav,,,,,,,,,1,10,45,27,,,,,,,,,,,,,,,left,0.318465948105,participant2,32,59.876714871,female,trial,2017_May_24_1541,
,,0.1,"[6.75, 0]",/sounds/legit/right100.wav,,,,,,,,,1,11,46,15,,,,,,,,,,,,,,,right,0.251789093018,participant2,32,59.876714871,female,trial,2017_May_24_1541,
,,0.1,"[4.5, 0]",/sounds/legit/right60.wav,,,,,,,,,1,12,47,10,,,,,,,,,,,,,,,right,0.352100849152,participant2,32,59.876714871,female,trial,2017_May_24_1541,
,,0.1,"[-2.25, 0]",/sounds/legit/left30.wav,,,,,,,,,1,13,48,20,,,,,,,,,,,,,,,left,0.602691173553,participant2,32,59.876714871,female,trial,2017_May_24_1541,
,,0.36,"[4.5, 0]",/sounds/legit/right60.wav,,,,,,,,,1,14,49,12,,,,,,,,,,,,,,,right,0.0516560077667,participant2,32,59.876714871,female,trial,2017_May_24_1541,
,,0.62,"[2.25, 0]",/sounds/legit/right30.wav,,,,,,,,,1,15,50,9,,,,,,,,,,,,,,,right,0.268595933914,participant2,32,59.876714871,female,trial,2017_May_24_1541,
,,0.36,"[0, 0]",/sounds/legit/equal.wav,,,,,,,,,1,16,51,2,,,,,,,,,,,,,,,right,1.40458703041,participant2,32,59.876714871,female,trial,2017_May_24_1541,
,,0.1,"[0, 0]",/sounds/legit/equal.wav,,,,,,,,,1,17,52,0,,,,,,,,,,,,,,,right,1.33756899834,participant2,32,59.876714871,female,trial,2017_May_24_1541,
,,0.1,"[0, 0]",/sounds/legit/equal.wav,,,,,,,,,1,18,53,0,,,,,,,,,,,,,,,right,1.23722696304,participant2,32,59.876714871,female,trial,2017_May_24_1541,
,,0.1,"[0, 0]",/sounds/legit/equal.wav,,,,,,,,,1,19,54,0,,,,,,,,,,,,,,,right,0.920008897781,participant2,32,59.876714871,female,trial,2017_May_24_1541,
,,0.1,"[-2.25, 0]",/sounds/legit/left30.wav,,,,,,,,,1,20,55,20,,,,,,,,,,,,,,,left,0.619234085083,participant2,32,59.876714871,female,trial,2017_May_24_1541,
,,0.62,"[-4.5, 0]",/sounds/legit/left60.wav,,,,,,,,,1,21,56,29,,,,,,,,,,,,,,,left,0.469107866287,participant2,32,59.876714871,female,trial,2017_May_24_1541,
,,0.23,"[-4.5, 0]",/sounds/legit/left60.wav,,,,,,,,,1,22,57,26,,,,,,,,,,,,,,,left,0.235227108002,participant2,32,59.876714871,female,trial,2017_May_24_1541,
,,0.1,"[0, 0]",/sounds/legit/equal.wav,,,,,,,,,1,23,58,0,,,,,,,,,,,,,,,right,0.418836832047,participant2,32,59.876714871,female,trial,2017_May_24_1541,
,,0.49,"[0, 0]",/sounds/legit/equal.wav,,,,,,,,,1,24,59,3,,,,,,,,,,,,,,,left,1.33761310577,participant2,32,59.876714871,female,trial,2017_May_24_1541,
,,0.1,"[4.5, 0]",/sounds/legit/right60.wav,,,,,,,,,1,25,60,10,,,,,,,,,,,,,,,right,0.0347981452942,participant2,32,59.876714871,female,trial,2017_May_24_1541,
,,0.62,"[0, 0]",/sounds/legit/equal.wav,,,,,,,,,1,26,61,4,,,,,,,,,,,,,,,left,0.41893196106,participant2,32,59.876714871,female,trial,2017_May_24_1541,
,,0.62,"[-6.75, 0]",/sounds/legit/left100.wav,,,,,,,,,1,27,62,34,,,,,,,,,,,,,,,left,0.335723161697,participant2,32,59.876714871,female,trial,2017_May_24_1541,
,,0.49,"[0, 0]",/sounds/legit/equal.wav,,,,,,,,,1,28,63,3,,,,,,,,,,,,,,,right,0.986886978149,participant2,32,59.876714871,female,trial,2017_May_24_1541,
,,0.62,"[-4.5, 0]",/sounds/legit/left60.wav,,,,,,,,,1,29,64,29,,,,,,,,,,,,,,,left,2.10600686073,participant2,32,59.876714871,female,trial,2017_May_24_1541,
,,0.36,"[2.25, 0]",/sounds/legit/right30.wav,,,,,,,,,1,30,65,7,,,,,,,,,,,,,,,right,0.0850188732147,participant2,32,59.876714871,female,trial,2017_May_24_1541,
,,0.1,"[-2.25, 0]",/sounds/legit/left30.wav,,,,,,,,,1,31,66,20,,,,,,,,,,,,,,,left,0.418726921082,participant2,32,59.876714871,female,trial,2017_May_24_1541,
,,0.36,"[6.75, 0]",/sounds/legit/right100.wav,,,,,,,,,1,32,67,17,,,,,,,,,,,,,,,right,0.218480110168,participant2,32,59.876714871,female,trial,2017_May_24_1541,
,,0.49,"[-6.75, 0]",/sounds/legit/left100.wav,,,,,,,,,1,33,68,33,,,,,,,,,,,,,,,left,0.235070943832,participant2,32,59.876714871,female,trial,2017_May_24_1541,
,,0.49,"[0, 0]",/sounds/legit/equal.wav,,,,,,,,,1,34,69,3,,,,,,,,,,,,,,,right,0.385545969009,participant2,32,59.876714871,female,trial,2017_May_24_1541,
,,0.62,"[-6.75, 0]",/sounds/legit/left100.wav,,,,,,,,,2,0,70,34,,,,,,,,,,,,,,,left,0.251707792282,participant2,32,59.876714871,female,trial,2017_May_24_1541,
,,0.62,"[-6.75, 0]",/sounds/legit/left100.wav,,,,,,,,,2,1,71,34,,,,,,,,,,,,,,,left,0.335296869278,participant2,32,59.876714871,female,trial,2017_May_24_1541,
,,0.62,"[-6.75, 0]",/sounds/legit/left100.wav,,,,,,,,,2,2,72,34,,,,,,,,,,,,,,,left,0.218502998352,participant2,32,59.876714871,female,trial,2017_May_24_1541,
,,0.62,"[2.25, 0]",/sounds/legit/right30.wav,,,,,,,,,2,3,73,9,,,,,,,,,,,,,,,right,0.134851932526,participant2,32,59.876714871,female,trial,2017_May_24_1541,
,,0.23,"[6.75, 0]",/sounds/legit/right100.wav,,,,,,,,,2,4,74,16,,,,,,,,,,,,,,,right,0.218107938766,participant2,32,59.876714871,female,trial,2017_May_24_1541,
,,0.36,"[-4.5, 0]",/sounds/legit/left60.wav,,,,,,,,,2,5,75,27,,,,,,,,,,,,,,,left,0.301914930344,participant2,32,59.876714871,female,trial,2017_May_24_1541,
,,0.62,"[-2.25, 0]",/sounds/legit/left30.wav,,,,,,,,,2,6,76,24,,,,,,,,,,,,,,,left,0.402199983597,participant2,32,59.876714871,female,trial,2017_May_24_1541,
,,0.62,"[0, 0]",/sounds/legit/equal.wav,,,,,,,,,2,7,77,4,,,,,,,,,,,,,,,right,0.519297122955,participant2,32,59.876714871,female,trial,2017_May_24_1541,
,,0.49,"[4.5, 0]",/sounds/legit/right60.wav,,,,,,,,,2,8,78,13,,,,,,,,,,,,,,,right,0.435950040817,participant2,32,59.876714871,female,trial,2017_May_24_1541,
,,0.23,"[0, 0]",/sounds/legit/equal.wav,,,,,,,,,2,9,79,1,,,,,,,,,,,,,,,right,0.970356941223,participant2,32,59.876714871,female,trial,2017_May_24_1541,
,,0.23,"[2.25, 0]",/sounds/legit/right30.wav,,,,,,,,,2,10,80,6,,,,,,,,,,,,,,,right,1.5714161396,participant2,32,59.876714871,female,trial,2017_May_24_1541,
,,0.36,"[-2.25, 0]",/sounds/legit/left30.wav,,,,,,,,,2,11,81,22,,,,,,,,,,,,,,,left,0.402065038681,participant2,32,59.876714871,female,trial,2017_May_24_1541,
,,0.1,"[6.75, 0]",/sounds/legit/right100.wav,,,,,,,,,2,12,82,15,,,,,,,,,,,,,,,right,0.018189907074,participant2,32,59.876714871,female,trial,2017_May_24_1541,
,,0.62,"[-2.25, 0]",/sounds/legit/left30.wav,,,,,,,,,2,13,83,24,,,,,,,,,,,,,,,left,0.435387134552,participant2,32,59.876714871,female,trial,2017_May_24_1541,
,,0.1,"[2.25, 0]",/sounds/legit/right30.wav,,,,,,,,,2,14,84,5,,,,,,,,,,,,,,,right,0.452357769012,participant2,32,59.876714871,female,trial,2017_May_24_1541,
,,0.23,"[2.25, 0]",/sounds/legit/right30.wav,,,,,,,,,2,15,85,6,,,,,,,,,,,,,,,right,0.468952894211,participant2,32,59.876714871,female,trial,2017_May_24_1541,
,,0.23,"[4.5, 0]",/sounds/legit/right60.wav,,,,,,,,,2,16,86,11,,,,,,,,,,,,,,,right,0.318866014481,participant2,32,59.876714871,female,trial,2017_May_24_1541,
,,0.62,"[-2.25, 0]",/sounds/legit/left30.wav,,,,,,,,,2,17,87,24,,,,,,,,,,,,,,,left,0.435428857803,participant2,32,59.876714871,female,trial,2017_May_24_1541,
,,0.62,"[2.25, 0]",/sounds/legit/right30.wav,,,,,,,,,2,18,88,9,,,,,,,,,,,,,,,right,0.435693979263,participant2,32,59.876714871,female,trial,2017_May_24_1541,
,,0.1,"[-4.5, 0]",/sounds/legit/left60.wav,,,,,,,,,2,19,89,25,,,,,,,,,,,,,,,left,0.185152053833,participant2,32,59.876714871,female,trial,2017_May_24_1541,
,,0.62,"[0, 0]",/sounds/legit/equal.wav,,,,,,,,,2,20,90,4,,,,,,,,,,,,,,,right,0.301920890808,participant2,32,59.876714871,female,trial,2017_May_24_1541,
,,0.1,"[-6.75, 0]",/sounds/legit/left100.wav,,,,,,,,,2,21,91,30,,,,,,,,,,,,,,,left,0.0346601009369,participant2,32,59.876714871,female,trial,2017_May_24_1541,
,,0.36,"[4.5, 0]",/sounds/legit/right60.wav,,,,,,,,,2,22,92,12,,,,,,,,,,,,,,,right,0.051531791687,participant2,32,59.876714871,female,trial,2017_May_24_1541,
,,0.23,"[0, 0]",/sounds/legit/equal.wav,,,,,,,,,2,23,93,1,,,,,,,,,,,,,,,right,0.485774993896,participant2,32,59.876714871,female,trial,2017_May_24_1541,
,,0.23,"[-6.75, 0]",/sounds/legit/left100.wav,,,,,,,,,2,24,94,31,,,,,,,,,,,,,,,left,0.101564884186,participant2,32,59.876714871,female,trial,2017_May_24_1541,
,,0.36,"[-4.5, 0]",/sounds/legit/left60.wav,,,,,,,,,2,25,95,27,,,,,,,,,,,,,,,left,0.135088920593,participant2,32,59.876714871,female,trial,2017_May_24_1541,
,,0.49,"[4.5, 0]",/sounds/legit/right60.wav,,,,,,,,,2,26,96,13,,,,,,,,,,,,,,,right,2.59038591385,participant2,32,59.876714871,female,trial,2017_May_24_1541,
,,0.36,"[-6.75, 0]",/sounds/legit/left100.wav,,,,,,,,,2,27,97,32,,,,,,,,,,,,,,,left,0.218350887299,participant2,32,59.876714871,female,trial,2017_May_24_1541,
,,0.36,"[-2.25, 0]",/sounds/legit/left30.wav,,,,,,,,,2,28,98,22,,,,,,,,,,,,,,,left,0.252018928528,participant2,32,59.876714871,female,trial,2017_May_24_1541,
,,0.62,"[-4.5, 0]",/sounds/legit/left60.wav,,,,,,,,,2,29,99,29,,,,,,,,,,,,,,,left,1.53807020187,participant2,32,59.876714871,female,trial,2017_May_24_1541,
,,0.36,"[-6.75, 0]",/sounds/legit/left100.wav,,,,,,,,,2,30,100,32,,,,,,,,,,,,,,,left,0.100996017456,participant2,32,59.876714871,female,trial,2017_May_24_1541,
,,0.36,"[-2.25, 0]",/sounds/legit/left30.wav,,,,,,,,,2,31,101,22,,,,,,,,,,,,,,,left,0.268634796143,participant2,32,59.876714871,female,trial,2017_May_24_1541,
,,0.49,"[-4.5, 0]",/sounds/legit/left60.wav,,,,,,,,,2,32,102,28,,,,,,,,,,,,,,,left,0.268597841263,participant2,32,59.876714871,female,trial,2017_May_24_1541,
,,0.62,"[4.5, 0]",/sounds/legit/right60.wav,,,,,,,,,2,33,103,14,,,,,,,,,,,,,,,right,1.05360889435,participant2,32,59.876714871,female,trial,2017_May_24_1541,
,,0.62,"[-2.25, 0]",/sounds/legit/left30.wav,,,,,,,,,2,34,104,24,,,,,,,,,,,,,,,left,0.435591936111,participant2,32,59.876714871,female,trial,2017_May_24_1541,
,,0.1,"[2.25, 0]",/sounds/legit/right30.wav,,,,,,,,,3,0,105,5,,,,,,,,,,,,,,,right,0.368757963181,participant2,32,59.876714871,female,trial,2017_May_24_1541,
,,0.49,"[0, 0]",/sounds/legit/equal.wav,,,,,,,,,3,1,106,3,,,,,,,,,,,,,,,right,0.351283788681,participant2,32,59.876714871,female,trial,2017_May_24_1541,
,,0.23,"[-4.5, 0]",/sounds/legit/left60.wav,,,,,,,,,3,2,107,26,,,,,,,,,,,,,,,left,0.101537942886,participant2,32,59.876714871,female,trial,2017_May_24_1541,
,,0.36,"[-4.5, 0]",/sounds/legit/left60.wav,,,,,,,,,3,3,108,27,,,,,,,,,,,,,,,left,0.185148000717,participant2,32,59.876714871,female,trial,2017_May_24_1541,
,,0.62,"[4.5, 0]",/sounds/legit/right60.wav,,,,,,,,,3,4,109,14,,,,,,,,,,,,,,,right,0.0179688930511,participant2,32,59.876714871,female,trial,2017_May_24_1541,
,,0.23,"[-4.5, 0]",/sounds/legit/left60.wav,,,,,,,,,3,5,110,26,,,,,,,,,,,,,,,left,0.151865005493,participant2,32,59.876714871,female,trial,2017_May_24_1541,
,,0.49,"[-6.75, 0]",/sounds/legit/left100.wav,,,,,,,,,3,6,111,33,,,,,,,,,,,,,,,left,0.0518310070038,participant2,32,59.876714871,female,trial,2017_May_24_1541,
,,0.62,"[6.75, 0]",/sounds/legit/right100.wav,,,,,,,,,3,7,112,19,,,,,,,,,,,,,,,right,1.87207913399,participant2,32,59.876714871,female,trial,2017_May_24_1541,
,,0.62,"[-4.5, 0]",/sounds/legit/left60.wav,,,,,,,,,3,8,113,29,,,,,,,,,,,,,,,left,0.452441930771,participant2,32,59.876714871,female,trial,2017_May_24_1541,
,,0.62,"[4.5, 0]",/sounds/legit/right60.wav,,,,,,,,,3,9,114,14,,,,,,,,,,,,,,,right,0.469083070755,participant2,32,59.876714871,female,trial,2017_May_24_1541,
,,0.1,"[-6.75, 0]",/sounds/legit/left100.wav,,,,,,,,,3,10,115,30,,,,,,,,,,,,,,,left,0.251811027527,participant2,32,59.876714871,female,trial,2017_May_24_1541,
,,0.23,"[-6.75, 0]",/sounds/legit/left100.wav,,,,,,,,,3,11,116,31,,,,,,,,,,,,,,,left,0.268692016602,participant2,32,59.876714871,female,trial,2017_May_24_1541,
,,0.62,"[-6.75, 0]",/sounds/legit/left100.wav,,,,,,,,,3,12,117,34,,,,,,,,,,,,,,,left,0.251885890961,participant2,32,59.876714871,female,trial,2017_May_24_1541,
,,0.23,"[-2.25, 0]",/sounds/legit/left30.wav,,,,,,,,,3,13,118,21,,,,,,,,,,,,,,,left,0.235328912735,participant2,32,59.876714871,female,trial,2017_May_24_1541,
,,0.62,"[-4.5, 0]",/sounds/legit/left60.wav,,,,,,,,,3,14,119,29,,,,,,,,,,,,,,,left,0.2018699646,participant2,32,59.876714871,female,trial,2017_May_24_1541,
,,0.36,"[-6.75, 0]",/sounds/legit/left100.wav,,,,,,,,,3,15,120,32,,,,,,,,,,,,,,,left,0.0348629951477,participant2,32,59.876714871,female,trial,2017_May_24_1541,
,,0.36,"[-6.75, 0]",/sounds/legit/left100.wav,,,,,,,,,3,16,121,32,,,,,,,,,,,,,,,left,0.201792955399,participant2,32,59.876714871,female,trial,2017_May_24_1541,
,,0.49,"[6.75, 0]",/sounds/legit/right100.wav,,,,,,,,,3,17,122,18,,,,,,,,,,,,,,,right,0.0346059799194,participant2,32,59.876714871,female,trial,2017_May_24_1541,
,,0.36,"[-6.75, 0]",/sounds/legit/left100.wav,,,,,,,,,3,18,123,32,,,,,,,,,,,,,,,left,0.135030031204,participant2,32,59.876714871,female,trial,2017_May_24_1541,
,,0.49,"[4.5, 0]",/sounds/legit/right60.wav,,,,,,,,,3,19,124,13,,,,,,,,,,,,,,,right,0.0181019306183,participant2,32,59.876714871,female,trial,2017_May_24_1541,
,,0.62,"[-4.5, 0]",/sounds/legit/left60.wav,,,,,,,,,3,20,125,29,,,,,,,,,,,,,,,left,0.268315076828,participant2,32,59.876714871,female,trial,2017_May_24_1541,
,,0.49,"[2.25, 0]",/sounds/legit/right30.wav,,,,,,,,,3,21,126,8,,,,,,,,,,,,,,,right,0.301934957504,participant2,32,59.876714871,female,trial,2017_May_24_1541,
,,0.23,"[-6.75, 0]",/sounds/legit/left100.wav,,,,,,,,,3,22,127,31,,,,,,,,,,,,,,,left,1.62140083313,participant2,32,59.876714871,female,trial,2017_May_24_1541,
,,0.62,"[0, 0]",/sounds/legit/equal.wav,,,,,,,,,3,23,128,4,,,,,,,,,,,,,,,left,1.10388207436,participant2,32,59.876714871,female,trial,2017_May_24_1541,
,,0.49,"[2.25, 0]",/sounds/legit/right30.wav,,,,,,,,,3,24,129,8,,,,,,,,,,,,,,,right,1.08702898026,participant2,32,59.876714871,female,trial,2017_May_24_1541,
,,0.62,"[2.25, 0]",/sounds/legit/right30.wav,,,,,,,,,3,25,130,9,,,,,,,,,,,,,,,right,0.268642902374,participant2,32,59.876714871,female,trial,2017_May_24_1541,
,,0.49,"[0, 0]",/sounds/legit/equal.wav,,,,,,,,,3,26,131,3,,,,,,,,,,,,,,,right,0.836467027664,participant2,32,59.876714871,female,trial,2017_May_24_1541,
,,0.36,"[-6.75, 0]",/sounds/legit/left100.wav,,,,,,,,,3,27,132,32,,,,,,,,,,,,,,,left,0.0680720806122,participant2,32,59.876714871,female,trial,2017_May_24_1541,
,,0.1,"[-6.75, 0]",/sounds/legit/left100.wav,,,,,,,,,3,28,133,30,,,,,,,,,,,,,,,left,0.185052156448,participant2,32,59.876714871,female,trial,2017_May_24_1541,
,,0.62,"[-6.75, 0]",/sounds/legit/left100.wav,,,,,,,,,3,29,134,34,,,,,,,,,,,,,,,left,0.201805114746,participant2,32,59.876714871,female,trial,2017_May_24_1541,
,,0.1,"[-2.25, 0]",/sounds/legit/left30.wav,,,,,,,,,3,30,135,20,,,,,,,,,,,,,,,left,0.31867814064,participant2,32,59.876714871,female,trial,2017_May_24_1541,
,,0.62,"[4.5, 0]",/sounds/legit/right60.wav,,,,,,,,,3,31,136,14,,,,,,,,,,,,,,,right,0.168492078781,participant2,32,59.876714871,female,trial,2017_May_24_1541,
,,0.23,"[4.5, 0]",/sounds/legit/right60.wav,,,,,,,,,3,32,137,11,,,,,,,,,,,,,,,right,0.151691913605,participant2,32,59.876714871,female,trial,2017_May_24_1541,
,,0.36,"[0, 0]",/sounds/legit/equal.wav,,,,,,,,,3,33,138,2,,,,,,,,,,,,,,,right,0.218467950821,participant2,32,59.876714871,female,trial,2017_May_24_1541,
,,0.23,"[4.5, 0]",/sounds/legit/right60.wav,,,,,,,,,3,34,139,11,,,,,,,,,,,,,,,right,0.101511955261,participant2,32,59.876714871,female,trial,2017_May_24_1541,
,,0.49,"[-6.75, 0]",/sounds/legit/left100.wav,,,,,,,,,4,0,140,33,,,,,,,,,,,,,,,left,0.151664972305,participant2,32,59.876714871,female,trial,2017_May_24_1541,
,,0.23,"[0, 0]",/sounds/legit/equal.wav,,,,,,,,,4,1,141,1,,,,,,,,,,,,,,,right,0.201747894287,participant2,32,59.876714871,female,trial,2017_May_24_1541,
,,0.49,"[2.25, 0]",/sounds/legit/right30.wav,,,,,,,,,4,2,142,8,,,,,,,,,,,,,,,right,0.151927947998,participant2,32,59.876714871,female,trial,2017_May_24_1541,
,,0.23,"[6.75, 0]",/sounds/legit/right100.wav,,,,,,,,,4,3,143,16,,,,,,,,,,,,,,,right,0.134738922119,participant2,32,59.876714871,female,trial,2017_May_24_1541,
,,0.36,"[0, 0]",/sounds/legit/equal.wav,,,,,,,,,4,4,144,2,,,,,,,,,,,,,,,right,0.569302082062,participant2,32,59.876714871,female,trial,2017_May_24_1541,
,,0.23,"[0, 0]",/sounds/legit/equal.wav,,,,,,,,,4,5,145,1,,,,,,,,,,,,,,,right,0.302021980286,participant2,32,59.876714871,female,trial,2017_May_24_1541,
,,0.49,"[2.25, 0]",/sounds/legit/right30.wav,,,,,,,,,4,6,146,8,,,,,,,,,,,,,,,right,0.652636051178,participant2,32,59.876714871,female,trial,2017_May_24_1541,
,,0.36,"[-2.25, 0]",/sounds/legit/left30.wav,,,,,,,,,4,7,147,22,,,,,,,,,,,,,,,left,0.75296497345,participant2,32,59.876714871,female,trial,2017_May_24_1541,
,,0.36,"[2.25, 0]",/sounds/legit/right30.wav,,,,,,,,,4,8,148,7,,,,,,,,,,,,,,,right,0.335345029831,participant2,32,59.876714871,female,trial,2017_May_24_1541,
,,0.49,"[4.5, 0]",/sounds/legit/right60.wav,,,,,,,,,4,9,149,13,,,,,,,,,,,,,,,right,0.402218103409,participant2,32,59.876714871,female,trial,2017_May_24_1541,
,,0.1,"[-2.25, 0]",/sounds/legit/left30.wav,,,,,,,,,4,10,150,20,,,,,,,,,,,,,,,left,0.368761062622,participant2,32,59.876714871,female,trial,2017_May_24_1541,
,,0.23,"[-2.25, 0]",/sounds/legit/left30.wav,,,,,,,,,4,11,151,21,,,,,,,,,,,,,,,left,0.20183300972,participant2,32,59.876714871,female,trial,2017_May_24_1541,
,,0.49,"[-4.5, 0]",/sounds/legit/left60.wav,,,,,,,,,4,12,152,28,,,,,,,,,,,,,,,left,0.235676050186,participant2,32,59.876714871,female,trial,2017_May_24_1541,
,,0.1,"[-4.5, 0]",/sounds/legit/left60.wav,,,,,,,,,4,13,153,25,,,,,,,,,,,,,,,left,0.201748847961,participant2,32,59.876714871,female,trial,2017_May_24_1541,
,,0.49,"[6.75, 0]",/sounds/legit/right100.wav,,,,,,,,,4,14,154,18,,,,,,,,,,,,,,,right,0.201905012131,participant2,32,59.876714871,female,trial,2017_May_24_1541,
,,0.36,"[4.5, 0]",/sounds/legit/right60.wav,,,,,,,,,4,15,155,12,,,,,,,,,,,,,,,right,1.35465598106,participant2,32,59.876714871,female,trial,2017_May_24_1541,
,,0.49,"[-6.75, 0]",/sounds/legit/left100.wav,,,,,,,,,4,16,156,33,,,,,,,,,,,,,,,left,0.235199928284,participant2,32,59.876714871,female,trial,2017_May_24_1541,
,,0.49,"[-6.75, 0]",/sounds/legit/left100.wav,,,,,,,,,4,17,157,33,,,,,,,,,,,,,,,left,0.101675987244,participant2,32,59.876714871,female,trial,2017_May_24_1541,
,,0.49,"[-2.25, 0]",/sounds/legit/left30.wav,,,,,,,,,4,18,158,23,,,,,,,,,,,,,,,left,0.251948833466,participant2,32,59.876714871,female,trial,2017_May_24_1541,
,,0.49,"[-6.75, 0]",/sounds/legit/left100.wav,,,,,,,,,4,19,159,33,,,,,,,,,,,,,,,left,0.118363142014,participant2,32,59.876714871,female,trial,2017_May_24_1541,
,,0.23,"[-6.75, 0]",/sounds/legit/left100.wav,,,,,,,,,4,20,160,31,,,,,,,,,,,,,,,left,0.168189048767,participant2,32,59.876714871,female,trial,2017_May_24_1541,
,,0.36,"[0, 0]",/sounds/legit/equal.wav,,,,,,,,,4,21,161,2,,,,,,,,,,,,,,,right,0.301841020584,participant2,32,59.876714871,female,trial,2017_May_24_1541,
,,0.62,"[6.75, 0]",/sounds/legit/right100.wav,,,,,,,,,4,22,162,19,,,,,,,,,,,,,,,right,0.0850269794464,participant2,32,59.876714871,female,trial,2017_May_24_1541,
,,0.62,"[-2.25, 0]",/sounds/legit/left30.wav,,,,,,,,,4,23,163,24,,,,,,,,,,,,,,,left,0.36935710907,participant2,32,59.876714871,female,trial,2017_May_24_1541,
,,0.36,"[2.25, 0]",/sounds/legit/right30.wav,,,,,,,,,4,24,164,7,,,,,,,,,,,,,,,right,0.66921710968,participant2,32,59.876714871,female,trial,2017_May_24_1541,
,,0.23,"[2.25, 0]",/sounds/legit/right30.wav,,,,,,,,,4,25,165,6,,,,,,,,,,,,,,,right,0.385395050049,participant2,32,59.876714871,female,trial,2017_May_24_1541,
,,0.36,"[6.75, 0]",/sounds/legit/right100.wav,,,,,,,,,4,26,166,17,,,,,,,,,,,,,,,right,0.0849261283875,participant2,32,59.876714871,female,trial,2017_May_24_1541,
,,0.49,"[4.5, 0]",/sounds/legit/right60.wav,,,,,,,,,4,27,167,13,,,,,,,,,,,,,,,right,0.252188205719,participant2,32,59.876714871,female,trial,2017_May_24_1541,
,,0.36,"[-6.75, 0]",/sounds/legit/left100.wav,,,,,,,,,4,28,168,32,,,,,,,,,,,,,,,left,0.185366153717,participant2,32,59.876714871,female,trial,2017_May_24_1541,
,,0.23,"[0, 0]",/sounds/legit/equal.wav,,,,,,,,,4,29,169,1,,,,,,,,,,,,,,,right,0.201751947403,participant2,32,59.876714871,female,trial,2017_May_24_1541,
,,0.1,"[-2.25, 0]",/sounds/legit/left30.wav,,,,,,,,,4,30,170,20,,,,,,,,,,,,,,,left,0.335386037827,participant2,32,59.876714871,female,trial,2017_May_24_1541,
,,0.1,"[-4.5, 0]",/sounds/legit/left60.wav,,,,,,,,,4,31,171,25,,,,,,,,,,,,,,,left,0.0347099304199,participant2,32,59.876714871,female,trial,2017_May_24_1541,
,,0.36,"[-2.25, 0]",/sounds/legit/left30.wav,,,,,,,,,4,32,172,22,,,,,,,,,,,,,,,left,0.201817035675,participant2,32,59.876714871,female,trial,2017_May_24_1541,
,,0.1,"[-4.5, 0]",/sounds/legit/left60.wav,,,,,,,,,4,33,173,25,,,,,,,,,,,,,,,left,0.2019572258,participant2,32,59.876714871,female,trial,2017_May_24_1541,
,,0.23,"[-2.25, 0]",/sounds/legit/left30.wav,,,,,,,,,4,34,174,21,,,,,,,,,,,,,,,left,0.201859951019,participant2,32,59.876714871,female,trial,2017_May_24_1541,
,,0.49,"[-4.5, 0]",/sounds/legit/left60.wav,,,,,,,,,5,0,175,28,,,,,,,,,,,,,,,left,0.235345125198,participant2,32,59.876714871,female,trial,2017_May_24_1541,
,,0.23,"[-6.75, 0]",/sounds/legit/left100.wav,,,,,,,,,5,1,176,31,,,,,,,,,,,,,,,left,0.0512509346008,participant2,32,59.876714871,female,trial,2017_May_24_1541,
,,0.23,"[6.75, 0]",/sounds/legit/right100.wav,,,,,,,,,5,2,177,16,,,,,,,,,,,,,,,right,1.70507597923,participant2,32,59.876714871,female,trial,2017_May_24_1541,
,,0.36,"[-4.5, 0]",/sounds/legit/left60.wav,,,,,,,,,5,3,178,27,,,,,,,,,,,,,,,left,0.201956033707,participant2,32,59.876714871,female,trial,2017_May_24_1541,
,,0.36,"[2.25, 0]",/sounds/legit/right30.wav,,,,,,,,,5,4,179,7,,,,,,,,,,,,,,,right,0.167227983475,participant2,32,59.876714871,female,trial,2017_May_24_1541,
,,0.49,"[6.75, 0]",/sounds/legit/right100.wav,,,,,,,,,5,5,180,18,,,,,,,,,,,,,,,right,1.30390501022,participant2,32,59.876714871,female,trial,2017_May_24_1541,
,,0.1,"[-2.25, 0]",/sounds/legit/left30.wav,,,,,,,,,5,6,181,20,,,,,,,,,,,,,,,left,1.43780779839,participant2,32,59.876714871,female,trial,2017_May_24_1541,
,,0.1,"[-4.5, 0]",/sounds/legit/left60.wav,,,,,,,,,5,7,182,25,,,,,,,,,,,,,,,left,0.268590927124,participant2,32,59.876714871,female,trial,2017_May_24_1541,
,,0.62,"[6.75, 0]",/sounds/legit/right100.wav,,,,,,,,,5,8,183,19,,,,,,,,,,,,,,,right,1.08686590195,participant2,32,59.876714871,female,trial,2017_May_24_1541,
,,0.1,"[2.25, 0]",/sounds/legit/right30.wav,,,,,,,,,5,9,184,5,,,,,,,,,,,,,,,right,0.118333816528,participant2,32,59.876714871,female,trial,2017_May_24_1541,
,,0.36,"[0, 0]",/sounds/legit/equal.wav,,,,,,,,,5,10,185,2,,,,,,,,,,,,,,,right,0.886494874954,participant2,32,59.876714871,female,trial,2017_May_24_1541,
,,0.36,"[2.25, 0]",/sounds/legit/right30.wav,,,,,,,,,5,11,186,7,,,,,,,,,,,,,,,right,0.185636997223,participant2,32,59.876714871,female,trial,2017_May_24_1541,
,,0.49,"[-2.25, 0]",/sounds/legit/left30.wav,,,,,,,,,5,12,187,23,,,,,,,,,,,,,,,left,0.402177095413,participant2,32,59.876714871,female,trial,2017_May_24_1541,
,,0.23,"[0, 0]",/sounds/legit/equal.wav,,,,,,,,,5,13,188,1,,,,,,,,,,,,,,,right,0.301995992661,participant2,32,59.876714871,female,trial,2017_May_24_1541,
,,0.1,"[0, 0]",/sounds/legit/equal.wav,,,,,,,,,5,14,189,0,,,,,,,,,,,,,,,right,0.302290916443,participant2,32,59.876714871,female,trial,2017_May_24_1541,
,,0.23,"[6.75, 0]",/sounds/legit/right100.wav,,,,,,,,,5,15,190,16,,,,,,,,,,,,,,,right,0.00143790245056,participant2,32,59.876714871,female,trial,2017_May_24_1541,
,,0.36,"[-2.25, 0]",/sounds/legit/left30.wav,,,,,,,,,5,16,191,22,,,,,,,,,,,,,,,left,0.235236883163,participant2,32,59.876714871,female,trial,2017_May_24_1541,
,,0.36,"[-6.75, 0]",/sounds/legit/left100.wav,,,,,,,,,5,17,192,32,,,,,,,,,,,,,,,left,0.151695013046,participant2,32,59.876714871,female,trial,2017_May_24_1541,
,,0.23,"[0, 0]",/sounds/legit/equal.wav,,,,,,,,,5,18,193,1,,,,,,,,,,,,,,,right,0.151777029037,participant2,32,59.876714871,female,trial,2017_May_24_1541,
,,0.23,"[2.25, 0]",/sounds/legit/right30.wav,,,,,,,,,5,19,194,6,,,,,,,,,,,,,,,right,0.202216863632,participant2,32,59.876714871,female,trial,2017_May_24_1541,
,,0.62,"[-6.75, 0]",/sounds/legit/left100.wav,,,,,,,,,5,20,195,34,,,,,,,,,,,,,,,left,0.285166025162,participant2,32,59.876714871,female,trial,2017_May_24_1541,
,,0.62,"[-2.25, 0]",/sounds/legit/left30.wav,,,,,,,,,5,21,196,24,,,,,,,,,,,,,,,right,0.502332925797,participant2,32,59.876714871,female,trial,2017_May_24_1541,
,,0.23,"[6.75, 0]",/sounds/legit/right100.wav,,,,,,,,,5,22,197,16,,,,,,,,,,,,,,,right,0.0847990512848,participant2,32,59.876714871,female,trial,2017_May_24_1541,
,,0.49,"[-2.25, 0]",/sounds/legit/left30.wav,,,,,,,,,5,23,198,23,,,,,,,,,,,,,,,left,0.201910018921,participant2,32,59.876714871,female,trial,2017_May_24_1541,
,,0.62,"[4.5, 0]",/sounds/legit/right60.wav,,,,,,,,,5,24,199,14,,,,,,,,,,,,,,,right,0.168252944946,participant2,32,59.876714871,female,trial,2017_May_24_1541,
,,0.49,"[-4.5, 0]",/sounds/legit/left60.wav,,,,,,,,,5,25,200,28,,,,,,,,,,,,,,,left,0.251811027527,participant2,32,59.876714871,female,trial,2017_May_24_1541,
,,0.62,"[-4.5, 0]",/sounds/legit/left60.wav,,,,,,,,,5,26,201,29,,,,,,,,,,,,,,,left,0.218241930008,participant2,32,59.876714871,female,trial,2017_May_24_1541,
,,0.62,"[0, 0]",/sounds/legit/equal.wav,,,,,,,,,5,27,202,4,,,,,,,,,,,,,,,left,0.535676956177,participant2,32,59.876714871,female,trial,2017_May_24_1541,
,,0.36,"[6.75, 0]",/sounds/legit/right100.wav,,,,,,,,,5,28,203,17,,,,,,,,,,,,,,,right,1.13730692863,participant2,32,59.876714871,female,trial,2017_May_24_1541,
,,0.1,"[0, 0]",/sounds/legit/equal.wav,,,,,,,,,5,29,204,0,,,,,,,,,,,,,,,right,0.569170951843,participant2,32,59.876714871,female,trial,2017_May_24_1541,
,,0.23,"[6.75, 0]",/sounds/legit/right100.wav,,,,,,,,,5,30,205,16,,,,,,,,,,,,,,,right,0.235233068466,participant2,32,59.876714871,female,trial,2017_May_24_1541,
,,0.49,"[-4.5, 0]",/sounds/legit/left60.wav,,,,,,,,,5,31,206,28,,,,,,,,,,,,,,,left,0.335330963135,participant2,32,59.876714871,female,trial,2017_May_24_1541,
,,0.49,"[2.25, 0]",/sounds/legit/right30.wav,,,,,,,,,5,32,207,8,,,,,,,,,,,,,,,right,0.452649831772,participant2,32,59.876714871,female,trial,2017_May_24_1541,
,,0.62,"[-6.75, 0]",/sounds/legit/left100.wav,,,,,,,,,5,33,208,34,,,,,,,,,,,,,,,left,0.268700838089,participant2,32,59.876714871,female,trial,2017_May_24_1541,
,,0.1,"[2.25, 0]",/sounds/legit/right30.wav,,,,,,,,,5,34,209,5,,,,,,,,,,,,,,,right,0.351917982101,participant2,32,59.876714871,female,trial,2017_May_24_1541,
,,0.49,"[-2.25, 0]",/sounds/legit/left30.wav,,,,,,,,,6,0,210,23,,,,,,,,,,,,,,,left,0.218289136887,participant2,32,59.876714871,female,trial,2017_May_24_1541,
,,0.23,"[-4.5, 0]",/sounds/legit/left60.wav,,,,,,,,,6,1,211,26,,,,,,,,,,,,,,,left,0.218523979187,participant2,32,59.876714871,female,trial,2017_May_24_1541,
,,0.49,"[6.75, 0]",/sounds/legit/right100.wav,,,,,,,,,6,2,212,18,,,,,,,,,,,,,,,right,0.101553916931,participant2,32,59.876714871,female,trial,2017_May_24_1541,
,,0.1,"[2.25, 0]",/sounds/legit/right30.wav,,,,,,,,,6,3,213,5,,,,,,,,,,,,,,,right,0.719488859177,participant2,32,59.876714871,female,trial,2017_May_24_1541,
,,0.49,"[2.25, 0]",/sounds/legit/right30.wav,,,,,,,,,6,4,214,8,,,,,,,,,,,,,,,right,0.0847089290619,participant2,32,59.876714871,female,trial,2017_May_24_1541,
,,0.1,"[2.25, 0]",/sounds/legit/right30.wav,,,,,,,,,6,5,215,5,,,,,,,,,,,,,,,right,0.118335008621,participant2,32,59.876714871,female,trial,2017_May_24_1541,
,,0.49,"[0, 0]",/sounds/legit/equal.wav,,,,,,,,,6,6,216,3,,,,,,,,,,,,,,,left,0.485749959946,participant2,32,59.876714871,female,trial,2017_May_24_1541,
,,0.23,"[2.25, 0]",/sounds/legit/right30.wav,,,,,,,,,6,7,217,6,,,,,,,,,,,,,,,right,0.21848988533,participant2,32,59.876714871,female,trial,2017_May_24_1541,
,,0.1,"[-6.75, 0]",/sounds/legit/left100.wav,,,,,,,,,6,8,218,30,,,,,,,,,,,,,,,left,0.185236930847,participant2,32,59.876714871,female,trial,2017_May_24_1541,
,,0.1,"[6.75, 0]",/sounds/legit/right100.wav,,,,,,,,,6,9,219,15,,,,,,,,,,,,,,,right,0.185122013092,participant2,32,59.876714871,female,trial,2017_May_24_1541,
,,0.49,"[0, 0]",/sounds/legit/equal.wav,,,,,,,,,6,10,220,3,,,,,,,,,,,,,,,right,0.335159063339,participant2,32,59.876714871,female,trial,2017_May_24_1541,
