path,name,noise,location,correspondingAudio,audiotrials.thisRepN,audiotrials.thisTrialN,audiotrials.thisN,audiotrials.thisIndex,visualTrials.thisRepN,visualTrials.thisTrialN,visualTrials.thisN,visualTrials.thisIndex,combinedTrials.thisRepN,combinedTrials.thisTrialN,combinedTrials.thisN,combinedTrials.thisIndex,WelcomeKey.keys,WelcomeKey.rt,key_resp_2.keys,key_resp_2.rt,AudioInstrAccept.keys,AudioInstrAccept.rt,LeftorRight.keys,LeftorRight.rt,VisualBlock.keys,VisualBlock.rt,VisualDecision.keys,VisualDecision.rt,CombinedAccept.keys,CombinedAccept.rt,CombComparisonResponse.keys,CombComparisonResponse.rt,participant,age,frameRate,sex,expName,date,
,,,,,,,,,,,,,,,,,space,25.2437469959,,,,,,,,,,,,,,,participant7,23,59.9408923314,F,trial,2017_May_28_1140,
,,,,,,,,,,,,,,,,,,,space,36.346146822,,,,,,,,,,,,,participant7,23,59.9408923314,F,trial,2017_May_28_1140,
,,,,,,,,,,,,,,,,,,,,,space,28.6797831059,,,,,,,,,,,participant7,23,59.9408923314,F,trial,2017_May_28_1140,
/sounds/legit/left70.wav,left60,,,,0,0,0,1,,,,,,,,,,,,,,,left,8.57229495049,,,,,,,,,participant7,23,59.9408923314,F,trial,2017_May_28_1140,
/sounds/legit/right100.wav,right100,,,,0,1,1,5,,,,,,,,,,,,,,,right,11.5593469143,,,,,,,,,participant7,23,59.9408923314,F,trial,2017_May_28_1140,
/sounds/legit/left100.wav,left100,,,,0,2,2,0,,,,,,,,,,,,,,,left,1.92208194733,,,,,,,,,participant7,23,59.9408923314,F,trial,2017_May_28_1140,
/sounds/legit/right70.wav,right60,,,,0,3,3,4,,,,,,,,,,,,,,,right,4.6770260334,,,,,,,,,participant7,23,59.9408923314,F,trial,2017_May_28_1140,
/sounds/legit/right35.wav,right30,,,,0,4,4,3,,,,,,,,,,,,,,,right,3.04127883911,,,,,,,,,participant7,23,59.9408923314,F,trial,2017_May_28_1140,
/sounds/legit/left35.wav,left30,,,,0,5,5,2,,,,,,,,,,,,,,,left,1.12044692039,,,,,,,,,participant7,23,59.9408923314,F,trial,2017_May_28_1140,
/sounds/legit/equal.wav,equal,,,,0,6,6,6,,,,,,,,,,,,,,,left,11.6092309952,,,,,,,,,participant7,23,59.9408923314,F,trial,2017_May_28_1140,
/sounds/legit/equal.wav,equal,,,,1,0,7,6,,,,,,,,,,,,,,,left,2.64067292213,,,,,,,,,participant7,23,59.9408923314,F,trial,2017_May_28_1140,
/sounds/legit/left35.wav,left30,,,,1,1,8,2,,,,,,,,,,,,,,,left,1.17037296295,,,,,,,,,participant7,23,59.9408923314,F,trial,2017_May_28_1140,
/sounds/legit/right35.wav,right30,,,,1,2,9,3,,,,,,,,,,,,,,,right,1.02010178566,,,,,,,,,participant7,23,59.9408923314,F,trial,2017_May_28_1140,
/sounds/legit/right100.wav,right100,,,,1,3,10,5,,,,,,,,,,,,,,,right,4.26042985916,,,,,,,,,participant7,23,59.9408923314,F,trial,2017_May_28_1140,
/sounds/legit/left70.wav,left60,,,,1,4,11,1,,,,,,,,,,,,,,,left,0.385322093964,,,,,,,,,participant7,23,59.9408923314,F,trial,2017_May_28_1140,
/sounds/legit/left100.wav,left100,,,,1,5,12,0,,,,,,,,,,,,,,,left,0.201625823975,,,,,,,,,participant7,23,59.9408923314,F,trial,2017_May_28_1140,
/sounds/legit/right70.wav,right60,,,,1,6,13,4,,,,,,,,,,,,,,,right,0.318602800369,,,,,,,,,participant7,23,59.9408923314,F,trial,2017_May_28_1140,
/sounds/legit/left100.wav,left100,,,,2,0,14,0,,,,,,,,,,,,,,,left,0.452334165573,,,,,,,,,participant7,23,59.9408923314,F,trial,2017_May_28_1140,
/sounds/legit/left35.wav,left30,,,,2,1,15,2,,,,,,,,,,,,,,,left,0.970040798187,,,,,,,,,participant7,23,59.9408923314,F,trial,2017_May_28_1140,
/sounds/legit/left70.wav,left60,,,,2,2,16,1,,,,,,,,,,,,,,,left,0.335329055786,,,,,,,,,participant7,23,59.9408923314,F,trial,2017_May_28_1140,
/sounds/legit/right35.wav,right30,,,,2,3,17,3,,,,,,,,,,,,,,,right,0.43553686142,,,,,,,,,participant7,23,59.9408923314,F,trial,2017_May_28_1140,
/sounds/legit/equal.wav,equal,,,,2,4,18,6,,,,,,,,,,,,,,,left,1.10368704796,,,,,,,,,participant7,23,59.9408923314,F,trial,2017_May_28_1140,
/sounds/legit/right70.wav,right60,,,,2,5,19,4,,,,,,,,,,,,,,,right,0.251947164536,,,,,,,,,participant7,23,59.9408923314,F,trial,2017_May_28_1140,
/sounds/legit/right100.wav,right100,,,,2,6,20,5,,,,,,,,,,,,,,,right,1.03717398643,,,,,,,,,participant7,23,59.9408923314,F,trial,2017_May_28_1140,
/sounds/legit/right70.wav,right60,,,,3,0,21,4,,,,,,,,,,,,,,,right,0.235227108002,,,,,,,,,participant7,23,59.9408923314,F,trial,2017_May_28_1140,
/sounds/legit/right35.wav,right30,,,,3,1,22,3,,,,,,,,,,,,,,,right,0.402204990387,,,,,,,,,participant7,23,59.9408923314,F,trial,2017_May_28_1140,
/sounds/legit/right100.wav,right100,,,,3,2,23,5,,,,,,,,,,,,,,,right,0.00130295753479,,,,,,,,,participant7,23,59.9408923314,F,trial,2017_May_28_1140,
/sounds/legit/left35.wav,left30,,,,3,3,24,2,,,,,,,,,,,,,,,left,0.48585486412,,,,,,,,,participant7,23,59.9408923314,F,trial,2017_May_28_1140,
/sounds/legit/left100.wav,left100,,,,3,4,25,0,,,,,,,,,,,,,,,left,0.101313114166,,,,,,,,,participant7,23,59.9408923314,F,trial,2017_May_28_1140,
/sounds/legit/left70.wav,left60,,,,3,5,26,1,,,,,,,,,,,,,,,left,0.11788392067,,,,,,,,,participant7,23,59.9408923314,F,trial,2017_May_28_1140,
/sounds/legit/equal.wav,equal,,,,3,6,27,6,,,,,,,,,,,,,,,left,3.09121894836,,,,,,,,,participant7,23,59.9408923314,F,trial,2017_May_28_1140,
/sounds/legit/left100.wav,left100,,,,4,0,28,0,,,,,,,,,,,,,,,left,0.235156059265,,,,,,,,,participant7,23,59.9408923314,F,trial,2017_May_28_1140,
/sounds/legit/left70.wav,left60,,,,4,1,29,1,,,,,,,,,,,,,,,left,0.969866037369,,,,,,,,,participant7,23,59.9408923314,F,trial,2017_May_28_1140,
/sounds/legit/left35.wav,left30,,,,4,2,30,2,,,,,,,,,,,,,,,left,0.318665027618,,,,,,,,,participant7,23,59.9408923314,F,trial,2017_May_28_1140,
/sounds/legit/right100.wav,right100,,,,4,3,31,5,,,,,,,,,,,,,,,right,0.0848109722137,,,,,,,,,participant7,23,59.9408923314,F,trial,2017_May_28_1140,
/sounds/legit/right35.wav,right30,,,,4,4,32,3,,,,,,,,,,,,,,,right,0.953320026398,,,,,,,,,participant7,23,59.9408923314,F,trial,2017_May_28_1140,
/sounds/legit/right70.wav,right60,,,,4,5,33,4,,,,,,,,,,,,,,,right,1.60482192039,,,,,,,,,participant7,23,59.9408923314,F,trial,2017_May_28_1140,
/sounds/legit/equal.wav,equal,,,,4,6,34,6,,,,,,,,,,,,,,,left,1.35423803329,,,,,,,,,participant7,23,59.9408923314,F,trial,2017_May_28_1140,
/sounds/legit/left35.wav,left30,,,,5,0,35,2,,,,,,,,,,,,,,,left,0.318598985672,,,,,,,,,participant7,23,59.9408923314,F,trial,2017_May_28_1140,
/sounds/legit/right100.wav,right100,,,,5,1,36,5,,,,,,,,,,,,,,,right,0.218436002731,,,,,,,,,participant7,23,59.9408923314,F,trial,2017_May_28_1140,
/sounds/legit/right35.wav,right30,,,,5,2,37,3,,,,,,,,,,,,,,,right,0.318696022034,,,,,,,,,participant7,23,59.9408923314,F,trial,2017_May_28_1140,
/sounds/legit/right70.wav,right60,,,,5,3,38,4,,,,,,,,,,,,,,,right,0.251931905746,,,,,,,,,participant7,23,59.9408923314,F,trial,2017_May_28_1140,
/sounds/legit/left100.wav,left100,,,,5,4,39,0,,,,,,,,,,,,,,,left,0.184984922409,,,,,,,,,participant7,23,59.9408923314,F,trial,2017_May_28_1140,
/sounds/legit/left70.wav,left60,,,,5,5,40,1,,,,,,,,,,,,,,,left,0.218505144119,,,,,,,,,participant7,23,59.9408923314,F,trial,2017_May_28_1140,
/sounds/legit/equal.wav,equal,,,,5,6,41,6,,,,,,,,,,,,,,,left,0.502559185028,,,,,,,,,participant7,23,59.9408923314,F,trial,2017_May_28_1140,
/sounds/legit/left70.wav,left60,,,,6,0,42,1,,,,,,,,,,,,,,,left,0.1850669384,,,,,,,,,participant7,23,59.9408923314,F,trial,2017_May_28_1140,
/sounds/legit/right35.wav,right30,,,,6,1,43,3,,,,,,,,,,,,,,,right,0.268719911575,,,,,,,,,participant7,23,59.9408923314,F,trial,2017_May_28_1140,
/sounds/legit/left100.wav,left100,,,,6,2,44,0,,,,,,,,,,,,,,,left,0.0347721576691,,,,,,,,,participant7,23,59.9408923314,F,trial,2017_May_28_1140,
/sounds/legit/left35.wav,left30,,,,6,3,45,2,,,,,,,,,,,,,,,left,2.08830285072,,,,,,,,,participant7,23,59.9408923314,F,trial,2017_May_28_1140,
/sounds/legit/right100.wav,right100,,,,6,4,46,5,,,,,,,,,,,,,,,right,0.301756858826,,,,,,,,,participant7,23,59.9408923314,F,trial,2017_May_28_1140,
/sounds/legit/right70.wav,right60,,,,6,5,47,4,,,,,,,,,,,,,,,right,2.82394003868,,,,,,,,,participant7,23,59.9408923314,F,trial,2017_May_28_1140,
/sounds/legit/equal.wav,equal,,,,6,6,48,6,,,,,,,,,,,,,,,left,0.235053777695,,,,,,,,,participant7,23,59.9408923314,F,trial,2017_May_28_1140,
/sounds/legit/right100.wav,right100,,,,7,0,49,5,,,,,,,,,,,,,,,right,0.301908969879,,,,,,,,,participant7,23,59.9408923314,F,trial,2017_May_28_1140,
/sounds/legit/equal.wav,equal,,,,7,1,50,6,,,,,,,,,,,,,,,left,0.485805034637,,,,,,,,,participant7,23,59.9408923314,F,trial,2017_May_28_1140,
/sounds/legit/left70.wav,left60,,,,7,2,51,1,,,,,,,,,,,,,,,left,0.335479974747,,,,,,,,,participant7,23,59.9408923314,F,trial,2017_May_28_1140,
/sounds/legit/right70.wav,right60,,,,7,3,52,4,,,,,,,,,,,,,,,right,0.168399095535,,,,,,,,,participant7,23,59.9408923314,F,trial,2017_May_28_1140,
/sounds/legit/left35.wav,left30,,,,7,4,53,2,,,,,,,,,,,,,,,left,0.0347309112549,,,,,,,,,participant7,23,59.9408923314,F,trial,2017_May_28_1140,
/sounds/legit/left100.wav,left100,,,,7,5,54,0,,,,,,,,,,,,,,,left,0.385360956192,,,,,,,,,participant7,23,59.9408923314,F,trial,2017_May_28_1140,
/sounds/legit/right35.wav,right30,,,,7,6,55,3,,,,,,,,,,,,,,,right,0.185069084167,,,,,,,,,participant7,23,59.9408923314,F,trial,2017_May_28_1140,
/sounds/legit/right35.wav,right30,,,,8,0,56,3,,,,,,,,,,,,,,,right,0.402168989182,,,,,,,,,participant7,23,59.9408923314,F,trial,2017_May_28_1140,
/sounds/legit/left35.wav,left30,,,,8,1,57,2,,,,,,,,,,,,,,,left,0.168376922607,,,,,,,,,participant7,23,59.9408923314,F,trial,2017_May_28_1140,
/sounds/legit/left70.wav,left60,,,,8,2,58,1,,,,,,,,,,,,,,,left,0.136013031006,,,,,,,,,participant7,23,59.9408923314,F,trial,2017_May_28_1140,
/sounds/legit/right70.wav,right60,,,,8,3,59,4,,,,,,,,,,,,,,,right,0.151397943497,,,,,,,,,participant7,23,59.9408923314,F,trial,2017_May_28_1140,
/sounds/legit/equal.wav,equal,,,,8,4,60,6,,,,,,,,,,,,,,,left,0.986809015274,,,,,,,,,participant7,23,59.9408923314,F,trial,2017_May_28_1140,
/sounds/legit/right100.wav,right100,,,,8,5,61,5,,,,,,,,,,,,,,,right,0.0346541404724,,,,,,,,,participant7,23,59.9408923314,F,trial,2017_May_28_1140,
/sounds/legit/left100.wav,left100,,,,8,6,62,0,,,,,,,,,,,,,,,left,0.0850298404694,,,,,,,,,participant7,23,59.9408923314,F,trial,2017_May_28_1140,
/sounds/legit/left35.wav,left30,,,,9,0,63,2,,,,,,,,,,,,,,,left,0.970144033432,,,,,,,,,participant7,23,59.9408923314,F,trial,2017_May_28_1140,
/sounds/legit/left100.wav,left100,,,,9,1,64,0,,,,,,,,,,,,,,,left,0.335442066193,,,,,,,,,participant7,23,59.9408923314,F,trial,2017_May_28_1140,
/sounds/legit/right70.wav,right60,,,,9,2,65,4,,,,,,,,,,,,,,,right,0.151481866837,,,,,,,,,participant7,23,59.9408923314,F,trial,2017_May_28_1140,
/sounds/legit/right35.wav,right30,,,,9,3,66,3,,,,,,,,,,,,,,,left,0.886587142944,,,,,,,,,participant7,23,59.9408923314,F,trial,2017_May_28_1140,
/sounds/legit/left70.wav,left60,,,,9,4,67,1,,,,,,,,,,,,,,,left,0.118476867676,,,,,,,,,participant7,23,59.9408923314,F,trial,2017_May_28_1140,
/sounds/legit/equal.wav,equal,,,,9,5,68,6,,,,,,,,,,,,,,,right,0.502337932587,,,,,,,,,participant7,23,59.9408923314,F,trial,2017_May_28_1140,
/sounds/legit/right100.wav,right100,,,,9,6,69,5,,,,,,,,,,,,,,,right,0.1682908535,,,,,,,,,participant7,23,59.9408923314,F,trial,2017_May_28_1140,
,,,,,,,,,,,,,,,,,,,,,,,,,space,19.1093790531,,,,,,,participant7,23,59.9408923314,F,trial,2017_May_28_1140,
,,0.23,"[-4.5, 0]",/sounds/legit/left70.wav,,,,,0,0,0,26,,,,,,,,,,,,,,,right,5.52979707718,,,,,participant7,23,59.9408923314,F,trial,2017_May_28_1140,
,,0.1,"[-6.75, 0]",/sounds/legit/left100.wav,,,,,0,1,1,30,,,,,,,,,,,,,,,left,3.64244294167,,,,,participant7,23,59.9408923314,F,trial,2017_May_28_1140,
,,0.23,"[6.75, 0]",/sounds/legit/right100.wav,,,,,0,2,2,16,,,,,,,,,,,,,,,right,3.12481713295,,,,,participant7,23,59.9408923314,F,trial,2017_May_28_1140,
,,0.23,"[-6.75, 0]",/sounds/legit/left100.wav,,,,,0,3,3,31,,,,,,,,,,,,,,,left,0.585780858994,,,,,participant7,23,59.9408923314,F,trial,2017_May_28_1140,
,,0.36,"[-4.5, 0]",/sounds/legit/left70.wav,,,,,0,4,4,27,,,,,,,,,,,,,,,left,19.3594608307,,,,,participant7,23,59.9408923314,F,trial,2017_May_28_1140,
,,0.1,"[-2.25, 0]",/sounds/legit/left35.wav,,,,,0,5,5,20,,,,,,,,,,,,,,,left,0.502340078354,,,,,participant7,23,59.9408923314,F,trial,2017_May_28_1140,
,,0.49,"[-4.5, 0]",/sounds/legit/left70.wav,,,,,0,6,6,28,,,,,,,,,,,,,,,left,0.11810708046,,,,,participant7,23,59.9408923314,F,trial,2017_May_28_1140,
,,0.62,"[4.5, 0]",/sounds/legit/right70.wav,,,,,0,7,7,14,,,,,,,,,,,,,,,right,0.269223928452,,,,,participant7,23,59.9408923314,F,trial,2017_May_28_1140,
,,0.36,"[-2.25, 0]",/sounds/legit/left35.wav,,,,,0,8,8,22,,,,,,,,,,,,,,,left,0.0681018829346,,,,,participant7,23,59.9408923314,F,trial,2017_May_28_1140,
,,0.23,"[2.25, 0]",/sounds/legit/right35.wav,,,,,0,9,9,6,,,,,,,,,,,,,,,right,1.77169895172,,,,,participant7,23,59.9408923314,F,trial,2017_May_28_1140,
,,0.23,"[0, 0]",/sounds/legit/equal.wav,,,,,0,10,10,1,,,,,,,,,,,,,,,right,0.752958059311,,,,,participant7,23,59.9408923314,F,trial,2017_May_28_1140,
,,0.36,"[2.25, 0]",/sounds/legit/right35.wav,,,,,0,11,11,7,,,,,,,,,,,,,,,right,0.285192012787,,,,,participant7,23,59.9408923314,F,trial,2017_May_28_1140,
,,0.36,"[4.5, 0]",/sounds/legit/right70.wav,,,,,0,12,12,12,,,,,,,,,,,,,,,right,0.0181198120117,,,,,participant7,23,59.9408923314,F,trial,2017_May_28_1140,
,,0.1,"[4.5, 0]",/sounds/legit/right70.wav,,,,,0,13,13,10,,,,,,,,,,,,,,,right,0.0178070068359,,,,,participant7,23,59.9408923314,F,trial,2017_May_28_1140,
,,0.36,"[0, 0]",/sounds/legit/equal.wav,,,,,0,14,14,2,,,,,,,,,,,,,,,left,1.28751111031,,,,,participant7,23,59.9408923314,F,trial,2017_May_28_1140,
,,0.62,"[-2.25, 0]",/sounds/legit/left35.wav,,,,,0,15,15,24,,,,,,,,,,,,,,,right,0.101526975632,,,,,participant7,23,59.9408923314,F,trial,2017_May_28_1140,
,,0.49,"[-6.75, 0]",/sounds/legit/left100.wav,,,,,0,16,16,33,,,,,,,,,,,,,,,left,0.118052005768,,,,,participant7,23,59.9408923314,F,trial,2017_May_28_1140,
,,0.1,"[2.25, 0]",/sounds/legit/right35.wav,,,,,0,17,17,5,,,,,,,,,,,,,,,right,0.185943126678,,,,,participant7,23,59.9408923314,F,trial,2017_May_28_1140,
,,0.62,"[-4.5, 0]",/sounds/legit/left70.wav,,,,,0,18,18,29,,,,,,,,,,,,,,,left,0.0180420875549,,,,,participant7,23,59.9408923314,F,trial,2017_May_28_1140,
,,0.62,"[-6.75, 0]",/sounds/legit/left100.wav,,,,,0,19,19,34,,,,,,,,,,,,,,,left,0.135066986084,,,,,participant7,23,59.9408923314,F,trial,2017_May_28_1140,
,,0.1,"[-4.5, 0]",/sounds/legit/left70.wav,,,,,0,20,20,25,,,,,,,,,,,,,,,left,0.118007898331,,,,,participant7,23,59.9408923314,F,trial,2017_May_28_1140,
,,0.49,"[6.75, 0]",/sounds/legit/right100.wav,,,,,0,21,21,18,,,,,,,,,,,,,,,right,0.535835027695,,,,,participant7,23,59.9408923314,F,trial,2017_May_28_1140,
,,0.23,"[4.5, 0]",/sounds/legit/right70.wav,,,,,0,22,22,11,,,,,,,,,,,,,,,right,6.4820420742,,,,,participant7,23,59.9408923314,F,trial,2017_May_28_1140,
,,0.49,"[0, 0]",/sounds/legit/equal.wav,,,,,0,23,23,3,,,,,,,,,,,,,,,left,0.519233942032,,,,,participant7,23,59.9408923314,F,trial,2017_May_28_1140,
,,0.36,"[-6.75, 0]",/sounds/legit/left100.wav,,,,,0,24,24,32,,,,,,,,,,,,,,,left,2.52331781387,,,,,participant7,23,59.9408923314,F,trial,2017_May_28_1140,
,,0.49,"[-2.25, 0]",/sounds/legit/left35.wav,,,,,0,25,25,23,,,,,,,,,,,,,,,left,0.0682830810547,,,,,participant7,23,59.9408923314,F,trial,2017_May_28_1140,
,,0.1,"[0, 0]",/sounds/legit/equal.wav,,,,,0,26,26,0,,,,,,,,,,,,,,,left,0.251683950424,,,,,participant7,23,59.9408923314,F,trial,2017_May_28_1140,
,,0.23,"[-2.25, 0]",/sounds/legit/left35.wav,,,,,0,27,27,21,,,,,,,,,,,,,,,left,0.101213932037,,,,,participant7,23,59.9408923314,F,trial,2017_May_28_1140,
,,0.36,"[6.75, 0]",/sounds/legit/right100.wav,,,,,0,28,28,17,,,,,,,,,,,,,,,right,0.101511955261,,,,,participant7,23,59.9408923314,F,trial,2017_May_28_1140,
,,0.62,"[0, 0]",/sounds/legit/equal.wav,,,,,0,29,29,4,,,,,,,,,,,,,,,left,0.251929044724,,,,,participant7,23,59.9408923314,F,trial,2017_May_28_1140,
,,0.1,"[6.75, 0]",/sounds/legit/right100.wav,,,,,0,30,30,15,,,,,,,,,,,,,,,right,0.0179958343506,,,,,participant7,23,59.9408923314,F,trial,2017_May_28_1140,
,,0.62,"[6.75, 0]",/sounds/legit/right100.wav,,,,,0,31,31,19,,,,,,,,,,,,,,,left,7.34953689575,,,,,participant7,23,59.9408923314,F,trial,2017_May_28_1140,
,,0.62,"[2.25, 0]",/sounds/legit/right35.wav,,,,,0,32,32,9,,,,,,,,,,,,,,,right,0.0180308818817,,,,,participant7,23,59.9408923314,F,trial,2017_May_28_1140,
,,0.49,"[2.25, 0]",/sounds/legit/right35.wav,,,,,0,33,33,8,,,,,,,,,,,,,,,right,2.35651612282,,,,,participant7,23,59.9408923314,F,trial,2017_May_28_1140,
,,0.49,"[4.5, 0]",/sounds/legit/right70.wav,,,,,0,34,34,13,,,,,,,,,,,,,,,right,0.00133109092712,,,,,participant7,23,59.9408923314,F,trial,2017_May_28_1140,
,,0.1,"[2.25, 0]",/sounds/legit/right35.wav,,,,,1,0,35,5,,,,,,,,,,,,,,,right,5.39610290527,,,,,participant7,23,59.9408923314,F,trial,2017_May_28_1140,
,,0.49,"[-6.75, 0]",/sounds/legit/left100.wav,,,,,1,1,36,33,,,,,,,,,,,,,,,left,0.118301153183,,,,,participant7,23,59.9408923314,F,trial,2017_May_28_1140,
,,0.1,"[-6.75, 0]",/sounds/legit/left100.wav,,,,,1,2,37,30,,,,,,,,,,,,,,,left,0.00142884254456,,,,,participant7,23,59.9408923314,F,trial,2017_May_28_1140,
,,0.23,"[-4.5, 0]",/sounds/legit/left70.wav,,,,,1,3,38,26,,,,,,,,,,,,,,,left,0.185067892075,,,,,participant7,23,59.9408923314,F,trial,2017_May_28_1140,
,,0.62,"[0, 0]",/sounds/legit/equal.wav,,,,,1,4,39,4,,,,,,,,,,,,,,,left,0.719600915909,,,,,participant7,23,59.9408923314,F,trial,2017_May_28_1140,
,,0.62,"[2.25, 0]",/sounds/legit/right35.wav,,,,,1,5,40,9,,,,,,,,,,,,,,,right,0.235502004623,,,,,participant7,23,59.9408923314,F,trial,2017_May_28_1140,
,,0.36,"[-2.25, 0]",/sounds/legit/left35.wav,,,,,1,6,41,22,,,,,,,,,,,,,,,left,2.99111795425,,,,,participant7,23,59.9408923314,F,trial,2017_May_28_1140,
,,0.23,"[0, 0]",/sounds/legit/equal.wav,,,,,1,7,42,1,,,,,,,,,,,,,,,left,0.302047967911,,,,,participant7,23,59.9408923314,F,trial,2017_May_28_1140,
,,0.49,"[4.5, 0]",/sounds/legit/right70.wav,,,,,1,8,43,13,,,,,,,,,,,,,,,right,0.0849189758301,,,,,participant7,23,59.9408923314,F,trial,2017_May_28_1140,
,,0.23,"[-2.25, 0]",/sounds/legit/left35.wav,,,,,1,9,44,21,,,,,,,,,,,,,,,left,0.0345330238342,,,,,participant7,23,59.9408923314,F,trial,2017_May_28_1140,
,,0.62,"[-6.75, 0]",/sounds/legit/left100.wav,,,,,1,10,45,34,,,,,,,,,,,,,,,left,0.602653980255,,,,,participant7,23,59.9408923314,F,trial,2017_May_28_1140,
,,0.23,"[-6.75, 0]",/sounds/legit/left100.wav,,,,,1,11,46,31,,,,,,,,,,,,,,,left,5.36272597313,,,,,participant7,23,59.9408923314,F,trial,2017_May_28_1140,
,,0.1,"[4.5, 0]",/sounds/legit/right70.wav,,,,,1,12,47,10,,,,,,,,,,,,,,,right,0.00126600265503,,,,,participant7,23,59.9408923314,F,trial,2017_May_28_1140,
,,0.1,"[-2.25, 0]",/sounds/legit/left35.wav,,,,,1,13,48,20,,,,,,,,,,,,,,,left,6.64900302887,,,,,participant7,23,59.9408923314,F,trial,2017_May_28_1140,
,,0.36,"[0, 0]",/sounds/legit/equal.wav,,,,,1,14,49,2,,,,,,,,,,,,,,,left,0.0515668392181,,,,,participant7,23,59.9408923314,F,trial,2017_May_28_1140,
,,0.23,"[2.25, 0]",/sounds/legit/right35.wav,,,,,1,15,50,6,,,,,,,,,,,,,,,right,0.0178248882294,,,,,participant7,23,59.9408923314,F,trial,2017_May_28_1140,
,,0.36,"[2.25, 0]",/sounds/legit/right35.wav,,,,,1,16,51,7,,,,,,,,,,,,,,,right,0.151607036591,,,,,participant7,23,59.9408923314,F,trial,2017_May_28_1140,
,,0.36,"[-6.75, 0]",/sounds/legit/left100.wav,,,,,1,17,52,32,,,,,,,,,,,,,,,left,0.335374116898,,,,,participant7,23,59.9408923314,F,trial,2017_May_28_1140,
,,0.49,"[-4.5, 0]",/sounds/legit/left70.wav,,,,,1,18,53,28,,,,,,,,,,,,,,,left,3.59257698059,,,,,participant7,23,59.9408923314,F,trial,2017_May_28_1140,
,,0.49,"[6.75, 0]",/sounds/legit/right100.wav,,,,,1,19,54,18,,,,,,,,,,,,,,,right,0.0180368423462,,,,,participant7,23,59.9408923314,F,trial,2017_May_28_1140,
,,0.49,"[0, 0]",/sounds/legit/equal.wav,,,,,1,20,55,3,,,,,,,,,,,,,,,left,3.29202198982,,,,,participant7,23,59.9408923314,F,trial,2017_May_28_1140,
,,0.36,"[-4.5, 0]",/sounds/legit/left70.wav,,,,,1,21,56,27,,,,,,,,,,,,,,,left,0.00142812728882,,,,,participant7,23,59.9408923314,F,trial,2017_May_28_1140,
,,0.62,"[6.75, 0]",/sounds/legit/right100.wav,,,,,1,22,57,19,,,,,,,,,,,,,,,right,0.0179829597473,,,,,participant7,23,59.9408923314,F,trial,2017_May_28_1140,
,,0.62,"[4.5, 0]",/sounds/legit/right70.wav,,,,,1,23,58,14,,,,,,,,,,,,,,,right,0.0348451137543,,,,,participant7,23,59.9408923314,F,trial,2017_May_28_1140,
,,0.23,"[6.75, 0]",/sounds/legit/right100.wav,,,,,1,24,59,16,,,,,,,,,,,,,,,right,4.52758693695,,,,,participant7,23,59.9408923314,F,trial,2017_May_28_1140,
,,0.62,"[-4.5, 0]",/sounds/legit/left70.wav,,,,,1,25,60,29,,,,,,,,,,,,,,,left,0.134915828705,,,,,participant7,23,59.9408923314,F,trial,2017_May_28_1140,
,,0.23,"[4.5, 0]",/sounds/legit/right70.wav,,,,,1,26,61,11,,,,,,,,,,,,,,,right,0.01811003685,,,,,participant7,23,59.9408923314,F,trial,2017_May_28_1140,
,,0.49,"[-2.25, 0]",/sounds/legit/left35.wav,,,,,1,27,62,23,,,,,,,,,,,,,,,left,2.89059519768,,,,,participant7,23,59.9408923314,F,trial,2017_May_28_1140,
,,0.1,"[6.75, 0]",/sounds/legit/right100.wav,,,,,1,28,63,15,,,,,,,,,,,,,,,right,0.0345759391785,,,,,participant7,23,59.9408923314,F,trial,2017_May_28_1140,
,,0.49,"[2.25, 0]",/sounds/legit/right35.wav,,,,,1,29,64,8,,,,,,,,,,,,,,,right,0.268676996231,,,,,participant7,23,59.9408923314,F,trial,2017_May_28_1140,
,,0.1,"[-4.5, 0]",/sounds/legit/left70.wav,,,,,1,30,65,25,,,,,,,,,,,,,,,left,3.65891599655,,,,,participant7,23,59.9408923314,F,trial,2017_May_28_1140,
,,0.36,"[6.75, 0]",/sounds/legit/right100.wav,,,,,1,31,66,17,,,,,,,,,,,,,,,right,1.12064909935,,,,,participant7,23,59.9408923314,F,trial,2017_May_28_1140,
,,0.36,"[4.5, 0]",/sounds/legit/right70.wav,,,,,1,32,67,12,,,,,,,,,,,,,,,right,0.00118803977966,,,,,participant7,23,59.9408923314,F,trial,2017_May_28_1140,
,,0.1,"[0, 0]",/sounds/legit/equal.wav,,,,,1,33,68,0,,,,,,,,,,,,,,,left,0.385584831238,,,,,participant7,23,59.9408923314,F,trial,2017_May_28_1140,
,,0.62,"[-2.25, 0]",/sounds/legit/left35.wav,,,,,1,34,69,24,,,,,,,,,,,,,,,right,0.251885175705,,,,,participant7,23,59.9408923314,F,trial,2017_May_28_1140,
,,0.36,"[6.75, 0]",/sounds/legit/right100.wav,,,,,2,0,70,17,,,,,,,,,,,,,,,right,0.0680029392242,,,,,participant7,23,59.9408923314,F,trial,2017_May_28_1140,
,,0.62,"[0, 0]",/sounds/legit/equal.wav,,,,,2,1,71,4,,,,,,,,,,,,,,,left,4.19332790375,,,,,participant7,23,59.9408923314,F,trial,2017_May_28_1140,
,,0.62,"[-6.75, 0]",/sounds/legit/left100.wav,,,,,2,2,72,34,,,,,,,,,,,,,,,left,0.302034139633,,,,,participant7,23,59.9408923314,F,trial,2017_May_28_1140,
,,0.62,"[6.75, 0]",/sounds/legit/right100.wav,,,,,2,3,73,19,,,,,,,,,,,,,,,left,4.37704110146,,,,,participant7,23,59.9408923314,F,trial,2017_May_28_1140,
,,0.36,"[-2.25, 0]",/sounds/legit/left35.wav,,,,,2,4,74,22,,,,,,,,,,,,,,,left,0.0179841518402,,,,,participant7,23,59.9408923314,F,trial,2017_May_28_1140,
,,0.49,"[-6.75, 0]",/sounds/legit/left100.wav,,,,,2,5,75,33,,,,,,,,,,,,,,,left,0.118303060532,,,,,participant7,23,59.9408923314,F,trial,2017_May_28_1140,
,,0.49,"[0, 0]",/sounds/legit/equal.wav,,,,,2,6,76,3,,,,,,,,,,,,,,,left,4.4941470623,,,,,participant7,23,59.9408923314,F,trial,2017_May_28_1140,
,,0.1,"[2.25, 0]",/sounds/legit/right35.wav,,,,,2,7,77,5,,,,,,,,,,,,,,,right,0.118359088898,,,,,participant7,23,59.9408923314,F,trial,2017_May_28_1140,
,,0.1,"[-6.75, 0]",/sounds/legit/left100.wav,,,,,2,8,78,30,,,,,,,,,,,,,,,left,0.0849230289459,,,,,participant7,23,59.9408923314,F,trial,2017_May_28_1140,
,,0.23,"[0, 0]",/sounds/legit/equal.wav,,,,,2,9,79,1,,,,,,,,,,,,,,,right,3.52579498291,,,,,participant7,23,59.9408923314,F,trial,2017_May_28_1140,
,,0.62,"[-4.5, 0]",/sounds/legit/left70.wav,,,,,2,10,80,29,,,,,,,,,,,,,,,left,0.05149102211,,,,,participant7,23,59.9408923314,F,trial,2017_May_28_1140,
,,0.36,"[2.25, 0]",/sounds/legit/right35.wav,,,,,2,11,81,7,,,,,,,,,,,,,,,left,4.74498295784,,,,,participant7,23,59.9408923314,F,trial,2017_May_28_1140,
,,0.36,"[4.5, 0]",/sounds/legit/right70.wav,,,,,2,12,82,12,,,,,,,,,,,,,,,left,5.99751591682,,,,,participant7,23,59.9408923314,F,trial,2017_May_28_1140,
,,0.49,"[-4.5, 0]",/sounds/legit/left70.wav,,,,,2,13,83,28,,,,,,,,,,,,,,,left,0.101501941681,,,,,participant7,23,59.9408923314,F,trial,2017_May_28_1140,
,,0.36,"[0, 0]",/sounds/legit/equal.wav,,,,,2,14,84,2,,,,,,,,,,,,,,,left,0.218740940094,,,,,participant7,23,59.9408923314,F,trial,2017_May_28_1140,
,,0.1,"[6.75, 0]",/sounds/legit/right100.wav,,,,,2,15,85,15,,,,,,,,,,,,,,,right,0.0180850028992,,,,,participant7,23,59.9408923314,F,trial,2017_May_28_1140,
,,0.62,"[-2.25, 0]",/sounds/legit/left35.wav,,,,,2,16,86,24,,,,,,,,,,,,,,,left,0.435552120209,,,,,participant7,23,59.9408923314,F,trial,2017_May_28_1140,
,,0.1,"[4.5, 0]",/sounds/legit/right70.wav,,,,,2,17,87,10,,,,,,,,,,,,,,,right,0.0681641101837,,,,,participant7,23,59.9408923314,F,trial,2017_May_28_1140,
,,0.23,"[2.25, 0]",/sounds/legit/right35.wav,,,,,2,18,88,6,,,,,,,,,,,,,,,right,0.0681312084198,,,,,participant7,23,59.9408923314,F,trial,2017_May_28_1140,
,,0.49,"[-2.25, 0]",/sounds/legit/left35.wav,,,,,2,19,89,23,,,,,,,,,,,,,,,left,0.0681450366974,,,,,participant7,23,59.9408923314,F,trial,2017_May_28_1140,
,,0.62,"[4.5, 0]",/sounds/legit/right70.wav,,,,,2,20,90,14,,,,,,,,,,,,,,,left,0.268103837967,,,,,participant7,23,59.9408923314,F,trial,2017_May_28_1140,
,,0.1,"[-2.25, 0]",/sounds/legit/left35.wav,,,,,2,21,91,20,,,,,,,,,,,,,,,left,0.118237018585,,,,,participant7,23,59.9408923314,F,trial,2017_May_28_1140,
,,0.23,"[-6.75, 0]",/sounds/legit/left100.wav,,,,,2,22,92,31,,,,,,,,,,,,,,,left,4.07665705681,,,,,participant7,23,59.9408923314,F,trial,2017_May_28_1140,
,,0.49,"[6.75, 0]",/sounds/legit/right100.wav,,,,,2,23,93,18,,,,,,,,,,,,,,,right,0.0847480297089,,,,,participant7,23,59.9408923314,F,trial,2017_May_28_1140,
,,0.23,"[6.75, 0]",/sounds/legit/right100.wav,,,,,2,24,94,16,,,,,,,,,,,,,,,right,0.00126814842224,,,,,participant7,23,59.9408923314,F,trial,2017_May_28_1140,
,,0.36,"[-6.75, 0]",/sounds/legit/left100.wav,,,,,2,25,95,32,,,,,,,,,,,,,,,left,4.96178412437,,,,,participant7,23,59.9408923314,F,trial,2017_May_28_1140,
,,0.1,"[0, 0]",/sounds/legit/equal.wav,,,,,2,26,96,0,,,,,,,,,,,,,,,left,0.20154094696,,,,,participant7,23,59.9408923314,F,trial,2017_May_28_1140,
,,0.49,"[2.25, 0]",/sounds/legit/right35.wav,,,,,2,27,97,8,,,,,,,,,,,,,,,right,0.0513861179352,,,,,participant7,23,59.9408923314,F,trial,2017_May_28_1140,
,,0.62,"[2.25, 0]",/sounds/legit/right35.wav,,,,,2,28,98,9,,,,,,,,,,,,,,,right,1.07018709183,,,,,participant7,23,59.9408923314,F,trial,2017_May_28_1140,
,,0.1,"[-4.5, 0]",/sounds/legit/left70.wav,,,,,2,29,99,25,,,,,,,,,,,,,,,left,0.185291051865,,,,,participant7,23,59.9408923314,F,trial,2017_May_28_1140,
,,0.23,"[4.5, 0]",/sounds/legit/right70.wav,,,,,2,30,100,11,,,,,,,,,,,,,,,right,0.184125185013,,,,,participant7,23,59.9408923314,F,trial,2017_May_28_1140,
,,0.23,"[-4.5, 0]",/sounds/legit/left70.wav,,,,,2,31,101,26,,,,,,,,,,,,,,,left,3.82623291016,,,,,participant7,23,59.9408923314,F,trial,2017_May_28_1140,
,,0.23,"[-2.25, 0]",/sounds/legit/left35.wav,,,,,2,32,102,21,,,,,,,,,,,,,,,left,0.0681610107422,,,,,participant7,23,59.9408923314,F,trial,2017_May_28_1140,
,,0.36,"[-4.5, 0]",/sounds/legit/left70.wav,,,,,2,33,103,27,,,,,,,,,,,,,,,left,7.8514149189,,,,,participant7,23,59.9408923314,F,trial,2017_May_28_1140,
,,0.49,"[4.5, 0]",/sounds/legit/right70.wav,,,,,2,34,104,13,,,,,,,,,,,,,,,right,0.151671886444,,,,,participant7,23,59.9408923314,F,trial,2017_May_28_1140,
,,0.36,"[-6.75, 0]",/sounds/legit/left100.wav,,,,,3,0,105,32,,,,,,,,,,,,,,,left,2.1722509861,,,,,participant7,23,59.9408923314,F,trial,2017_May_28_1140,
,,0.36,"[4.5, 0]",/sounds/legit/right70.wav,,,,,3,1,106,12,,,,,,,,,,,,,,,right,0.0679659843445,,,,,participant7,23,59.9408923314,F,trial,2017_May_28_1140,
,,0.1,"[-2.25, 0]",/sounds/legit/left35.wav,,,,,3,2,107,20,,,,,,,,,,,,,,,left,0.101551055908,,,,,participant7,23,59.9408923314,F,trial,2017_May_28_1140,
,,0.49,"[6.75, 0]",/sounds/legit/right100.wav,,,,,3,3,108,18,,,,,,,,,,,,,,,right,0.134851932526,,,,,participant7,23,59.9408923314,F,trial,2017_May_28_1140,
,,0.36,"[-2.25, 0]",/sounds/legit/left35.wav,,,,,3,4,109,22,,,,,,,,,,,,,,,left,0.00132393836975,,,,,participant7,23,59.9408923314,F,trial,2017_May_28_1140,
,,0.62,"[-6.75, 0]",/sounds/legit/left100.wav,,,,,3,5,110,34,,,,,,,,,,,,,,,left,0.101719141006,,,,,participant7,23,59.9408923314,F,trial,2017_May_28_1140,
,,0.49,"[-4.5, 0]",/sounds/legit/left70.wav,,,,,3,6,111,28,,,,,,,,,,,,,,,left,0.0181441307068,,,,,participant7,23,59.9408923314,F,trial,2017_May_28_1140,
,,0.62,"[4.5, 0]",/sounds/legit/right70.wav,,,,,3,7,112,14,,,,,,,,,,,,,,,right,0.251847982407,,,,,participant7,23,59.9408923314,F,trial,2017_May_28_1140,
,,0.23,"[2.25, 0]",/sounds/legit/right35.wav,,,,,3,8,113,6,,,,,,,,,,,,,,,right,13.1461479664,,,,,participant7,23,59.9408923314,F,trial,2017_May_28_1140,
,,0.62,"[-4.5, 0]",/sounds/legit/left70.wav,,,,,3,9,114,29,,,,,,,,,,,,,,,left,0.185172080994,,,,,participant7,23,59.9408923314,F,trial,2017_May_28_1140,
,,0.23,"[-6.75, 0]",/sounds/legit/left100.wav,,,,,3,10,115,31,,,,,,,,,,,,,,,left,0.218327045441,,,,,participant7,23,59.9408923314,F,trial,2017_May_28_1140,
,,0.1,"[0, 0]",/sounds/legit/equal.wav,,,,,3,11,116,0,,,,,,,,,,,,,,,right,0.101605176926,,,,,participant7,23,59.9408923314,F,trial,2017_May_28_1140,
,,0.36,"[0, 0]",/sounds/legit/equal.wav,,,,,3,12,117,2,,,,,,,,,,,,,,,right,2.74065113068,,,,,participant7,23,59.9408923314,F,trial,2017_May_28_1140,
,,0.49,"[0, 0]",/sounds/legit/equal.wav,,,,,3,13,118,3,,,,,,,,,,,,,,,left,0.95349407196,,,,,participant7,23,59.9408923314,F,trial,2017_May_28_1140,
,,0.62,"[6.75, 0]",/sounds/legit/right100.wav,,,,,3,14,119,19,,,,,,,,,,,,,,,right,0.218472003937,,,,,participant7,23,59.9408923314,F,trial,2017_May_28_1140,
,,0.62,"[0, 0]",/sounds/legit/equal.wav,,,,,3,15,120,4,,,,,,,,,,,,,,,left,0.41791510582,,,,,participant7,23,59.9408923314,F,trial,2017_May_28_1140,
,,0.1,"[6.75, 0]",/sounds/legit/right100.wav,,,,,3,16,121,15,,,,,,,,,,,,,,,right,0.0681979656219,,,,,participant7,23,59.9408923314,F,trial,2017_May_28_1140,
,,0.49,"[2.25, 0]",/sounds/legit/right35.wav,,,,,3,17,122,8,,,,,,,,,,,,,,,right,0.0517141819,,,,,participant7,23,59.9408923314,F,trial,2017_May_28_1140,
,,0.49,"[-2.25, 0]",/sounds/legit/left35.wav,,,,,3,18,123,23,,,,,,,,,,,,,,,left,6.99960494041,,,,,participant7,23,59.9408923314,F,trial,2017_May_28_1140,
,,0.23,"[6.75, 0]",/sounds/legit/right100.wav,,,,,3,19,124,16,,,,,,,,,,,,,,,right,0.0351521968842,,,,,participant7,23,59.9408923314,F,trial,2017_May_28_1140,
,,0.62,"[-2.25, 0]",/sounds/legit/left35.wav,,,,,3,20,125,24,,,,,,,,,,,,,,,left,4.51088309288,,,,,participant7,23,59.9408923314,F,trial,2017_May_28_1140,
,,0.36,"[2.25, 0]",/sounds/legit/right35.wav,,,,,3,21,126,7,,,,,,,,,,,,,,,right,0.218440055847,,,,,participant7,23,59.9408923314,F,trial,2017_May_28_1140,
,,0.36,"[-4.5, 0]",/sounds/legit/left70.wav,,,,,3,22,127,27,,,,,,,,,,,,,,,left,3.45876502991,,,,,participant7,23,59.9408923314,F,trial,2017_May_28_1140,
,,0.23,"[0, 0]",/sounds/legit/equal.wav,,,,,3,23,128,1,,,,,,,,,,,,,,,left,0.168174982071,,,,,participant7,23,59.9408923314,F,trial,2017_May_28_1140,
,,0.1,"[2.25, 0]",/sounds/legit/right35.wav,,,,,3,24,129,5,,,,,,,,,,,,,,,right,0.586184978485,,,,,participant7,23,59.9408923314,F,trial,2017_May_28_1140,
,,0.49,"[4.5, 0]",/sounds/legit/right70.wav,,,,,3,25,130,13,,,,,,,,,,,,,,,right,4.72811293602,,,,,participant7,23,59.9408923314,F,trial,2017_May_28_1140,
,,0.1,"[-4.5, 0]",/sounds/legit/left70.wav,,,,,3,26,131,25,,,,,,,,,,,,,,,left,4.89516806602,,,,,participant7,23,59.9408923314,F,trial,2017_May_28_1140,
,,0.23,"[-2.25, 0]",/sounds/legit/left35.wav,,,,,3,27,132,21,,,,,,,,,,,,,,,left,1.30313301086,,,,,participant7,23,59.9408923314,F,trial,2017_May_28_1140,
,,0.49,"[-6.75, 0]",/sounds/legit/left100.wav,,,,,3,28,133,33,,,,,,,,,,,,,,,left,0.0189728736877,,,,,participant7,23,59.9408923314,F,trial,2017_May_28_1140,
,,0.23,"[-4.5, 0]",/sounds/legit/left70.wav,,,,,3,29,134,26,,,,,,,,,,,,,,,left,4.81169199944,,,,,participant7,23,59.9408923314,F,trial,2017_May_28_1140,
,,0.62,"[2.25, 0]",/sounds/legit/right35.wav,,,,,3,30,135,9,,,,,,,,,,,,,,,right,0.535759925842,,,,,participant7,23,59.9408923314,F,trial,2017_May_28_1140,
,,0.23,"[4.5, 0]",/sounds/legit/right70.wav,,,,,3,31,136,11,,,,,,,,,,,,,,,right,5.93074297905,,,,,participant7,23,59.9408923314,F,trial,2017_May_28_1140,
,,0.36,"[6.75, 0]",/sounds/legit/right100.wav,,,,,3,32,137,17,,,,,,,,,,,,,,,right,0.218502998352,,,,,participant7,23,59.9408923314,F,trial,2017_May_28_1140,
,,0.1,"[-6.75, 0]",/sounds/legit/left100.wav,,,,,3,33,138,30,,,,,,,,,,,,,,,left,0.0848050117493,,,,,participant7,23,59.9408923314,F,trial,2017_May_28_1140,
,,0.1,"[4.5, 0]",/sounds/legit/right70.wav,,,,,3,34,139,10,,,,,,,,,,,,,,,right,2.97418189049,,,,,participant7,23,59.9408923314,F,trial,2017_May_28_1140,
,,0.49,"[-4.5, 0]",/sounds/legit/left70.wav,,,,,4,0,140,28,,,,,,,,,,,,,,,left,4.32736802101,,,,,participant7,23,59.9408923314,F,trial,2017_May_28_1140,
,,0.62,"[-4.5, 0]",/sounds/legit/left70.wav,,,,,4,1,141,29,,,,,,,,,,,,,,,left,0.18507194519,,,,,participant7,23,59.9408923314,F,trial,2017_May_28_1140,
,,0.49,"[4.5, 0]",/sounds/legit/right70.wav,,,,,4,2,142,13,,,,,,,,,,,,,,,right,0.0503520965576,,,,,participant7,23,59.9408923314,F,trial,2017_May_28_1140,
,,0.36,"[4.5, 0]",/sounds/legit/right70.wav,,,,,4,3,143,12,,,,,,,,,,,,,,,right,2.25612902641,,,,,participant7,23,59.9408923314,F,trial,2017_May_28_1140,
,,0.49,"[-6.75, 0]",/sounds/legit/left100.wav,,,,,4,4,144,33,,,,,,,,,,,,,,,left,0.0848209857941,,,,,participant7,23,59.9408923314,F,trial,2017_May_28_1140,
,,0.23,"[0, 0]",/sounds/legit/equal.wav,,,,,4,5,145,1,,,,,,,,,,,,,,,left,0.0513880252838,,,,,participant7,23,59.9408923314,F,trial,2017_May_28_1140,
,,0.1,"[-2.25, 0]",/sounds/legit/left35.wav,,,,,4,6,146,20,,,,,,,,,,,,,,,left,4.47760891914,,,,,participant7,23,59.9408923314,F,trial,2017_May_28_1140,
,,0.1,"[-4.5, 0]",/sounds/legit/left70.wav,,,,,4,7,147,25,,,,,,,,,,,,,,,left,0.00125885009766,,,,,participant7,23,59.9408923314,F,trial,2017_May_28_1140,
,,0.62,"[0, 0]",/sounds/legit/equal.wav,,,,,4,8,148,4,,,,,,,,,,,,,,,left,0.00139498710632,,,,,participant7,23,59.9408923314,F,trial,2017_May_28_1140,
,,0.23,"[-2.25, 0]",/sounds/legit/left35.wav,,,,,4,9,149,21,,,,,,,,,,,,,,,left,5.29588198662,,,,,participant7,23,59.9408923314,F,trial,2017_May_28_1140,
,,0.62,"[6.75, 0]",/sounds/legit/right100.wav,,,,,4,10,150,19,,,,,,,,,,,,,,,left,0.418092012405,,,,,participant7,23,59.9408923314,F,trial,2017_May_28_1140,
,,0.1,"[4.5, 0]",/sounds/legit/right70.wav,,,,,4,11,151,10,,,,,,,,,,,,,,,right,0.0849349498749,,,,,participant7,23,59.9408923314,F,trial,2017_May_28_1140,
,,0.23,"[2.25, 0]",/sounds/legit/right35.wav,,,,,4,12,152,6,,,,,,,,,,,,,,,right,0.00144004821777,,,,,participant7,23,59.9408923314,F,trial,2017_May_28_1140,
,,0.36,"[-6.75, 0]",/sounds/legit/left100.wav,,,,,4,13,153,32,,,,,,,,,,,,,,,left,4.99514317513,,,,,participant7,23,59.9408923314,F,trial,2017_May_28_1140,
,,0.23,"[4.5, 0]",/sounds/legit/right70.wav,,,,,4,14,154,11,,,,,,,,,,,,,,,right,0.0181031227112,,,,,participant7,23,59.9408923314,F,trial,2017_May_28_1140,
,,0.36,"[0, 0]",/sounds/legit/equal.wav,,,,,4,15,155,2,,,,,,,,,,,,,,,left,3.47548794746,,,,,participant7,23,59.9408923314,F,trial,2017_May_28_1140,
,,0.49,"[-2.25, 0]",/sounds/legit/left35.wav,,,,,4,16,156,23,,,,,,,,,,,,,,,left,0.135076999664,,,,,participant7,23,59.9408923314,F,trial,2017_May_28_1140,
,,0.49,"[0, 0]",/sounds/legit/equal.wav,,,,,4,17,157,3,,,,,,,,,,,,,,,left,0.201867818832,,,,,participant7,23,59.9408923314,F,trial,2017_May_28_1140,
,,0.49,"[6.75, 0]",/sounds/legit/right100.wav,,,,,4,18,158,18,,,,,,,,,,,,,,,right,0.151569128036,,,,,participant7,23,59.9408923314,F,trial,2017_May_28_1140,
,,0.23,"[-4.5, 0]",/sounds/legit/left70.wav,,,,,4,19,159,26,,,,,,,,,,,,,,,left,0.0348689556122,,,,,participant7,23,59.9408923314,F,trial,2017_May_28_1140,
,,0.62,"[4.5, 0]",/sounds/legit/right70.wav,,,,,4,20,160,14,,,,,,,,,,,,,,,right,0.135082006454,,,,,participant7,23,59.9408923314,F,trial,2017_May_28_1140,
,,0.36,"[6.75, 0]",/sounds/legit/right100.wav,,,,,4,21,161,17,,,,,,,,,,,,,,,right,0.151611804962,,,,,participant7,23,59.9408923314,F,trial,2017_May_28_1140,
,,0.1,"[6.75, 0]",/sounds/legit/right100.wav,,,,,4,22,162,15,,,,,,,,,,,,,,,right,0.0680260658264,,,,,participant7,23,59.9408923314,F,trial,2017_May_28_1140,
,,0.49,"[2.25, 0]",/sounds/legit/right35.wav,,,,,4,23,163,8,,,,,,,,,,,,,,,right,5.99746894836,,,,,participant7,23,59.9408923314,F,trial,2017_May_28_1140,
,,0.62,"[2.25, 0]",/sounds/legit/right35.wav,,,,,4,24,164,9,,,,,,,,,,,,,,,right,0.0671529769897,,,,,participant7,23,59.9408923314,F,trial,2017_May_28_1140,
,,0.1,"[0, 0]",/sounds/legit/equal.wav,,,,,4,25,165,0,,,,,,,,,,,,,,,left,0.0180101394653,,,,,participant7,23,59.9408923314,F,trial,2017_May_28_1140,
,,0.62,"[-2.25, 0]",/sounds/legit/left35.wav,,,,,4,26,166,24,,,,,,,,,,,,,,,left,0.0187890529633,,,,,participant7,23,59.9408923314,F,trial,2017_May_28_1140,
,,0.23,"[-6.75, 0]",/sounds/legit/left100.wav,,,,,4,27,167,31,,,,,,,,,,,,,,,left,2.57363390923,,,,,participant7,23,59.9408923314,F,trial,2017_May_28_1140,
,,0.36,"[2.25, 0]",/sounds/legit/right35.wav,,,,,4,28,168,7,,,,,,,,,,,,,,,left,0.0346269607544,,,,,participant7,23,59.9408923314,F,trial,2017_May_28_1140,
,,0.36,"[-4.5, 0]",/sounds/legit/left70.wav,,,,,4,29,169,27,,,,,,,,,,,,,,,left,0.535785913467,,,,,participant7,23,59.9408923314,F,trial,2017_May_28_1140,
,,0.62,"[-6.75, 0]",/sounds/legit/left100.wav,,,,,4,30,170,34,,,,,,,,,,,,,,,left,0.552424907684,,,,,participant7,23,59.9408923314,F,trial,2017_May_28_1140,
,,0.1,"[-6.75, 0]",/sounds/legit/left100.wav,,,,,4,31,171,30,,,,,,,,,,,,,,,left,0.0514779090881,,,,,participant7,23,59.9408923314,F,trial,2017_May_28_1140,
,,0.1,"[2.25, 0]",/sounds/legit/right35.wav,,,,,4,32,172,5,,,,,,,,,,,,,,,right,0.0680060386658,,,,,participant7,23,59.9408923314,F,trial,2017_May_28_1140,
,,0.36,"[-2.25, 0]",/sounds/legit/left35.wav,,,,,4,33,173,22,,,,,,,,,,,,,,,left,3.30847287178,,,,,participant7,23,59.9408923314,F,trial,2017_May_28_1140,
,,0.23,"[6.75, 0]",/sounds/legit/right100.wav,,,,,4,34,174,16,,,,,,,,,,,,,,,right,0.569357156754,,,,,participant7,23,59.9408923314,F,trial,2017_May_28_1140,
,,0.23,"[-4.5, 0]",/sounds/legit/left70.wav,,,,,5,0,175,26,,,,,,,,,,,,,,,left,0.168453931808,,,,,participant7,23,59.9408923314,F,trial,2017_May_28_1140,
,,0.49,"[-4.5, 0]",/sounds/legit/left70.wav,,,,,5,1,176,28,,,,,,,,,,,,,,,left,0.268666982651,,,,,participant7,23,59.9408923314,F,trial,2017_May_28_1140,
,,0.62,"[2.25, 0]",/sounds/legit/right35.wav,,,,,5,2,177,9,,,,,,,,,,,,,,,left,0.752938985825,,,,,participant7,23,59.9408923314,F,trial,2017_May_28_1140,
,,0.23,"[-6.75, 0]",/sounds/legit/left100.wav,,,,,5,3,178,31,,,,,,,,,,,,,,,left,0.118207931519,,,,,participant7,23,59.9408923314,F,trial,2017_May_28_1140,
,,0.36,"[2.25, 0]",/sounds/legit/right35.wav,,,,,5,4,179,7,,,,,,,,,,,,,,,right,0.468648910522,,,,,participant7,23,59.9408923314,F,trial,2017_May_28_1140,
,,0.62,"[0, 0]",/sounds/legit/equal.wav,,,,,5,5,180,4,,,,,,,,,,,,,,,left,0.235022068024,,,,,participant7,23,59.9408923314,F,trial,2017_May_28_1140,
,,0.62,"[-2.25, 0]",/sounds/legit/left35.wav,,,,,5,6,181,24,,,,,,,,,,,,,,,left,0.0848388671875,,,,,participant7,23,59.9408923314,F,trial,2017_May_28_1140,
,,0.49,"[-2.25, 0]",/sounds/legit/left35.wav,,,,,5,7,182,23,,,,,,,,,,,,,,,left,0.0181279182434,,,,,participant7,23,59.9408923314,F,trial,2017_May_28_1140,
,,0.23,"[4.5, 0]",/sounds/legit/right70.wav,,,,,5,8,183,11,,,,,,,,,,,,,,,right,0.802860021591,,,,,participant7,23,59.9408923314,F,trial,2017_May_28_1140,
,,0.49,"[6.75, 0]",/sounds/legit/right100.wav,,,,,5,9,184,18,,,,,,,,,,,,,,,right,0.201690912247,,,,,participant7,23,59.9408923314,F,trial,2017_May_28_1140,
,,0.1,"[-4.5, 0]",/sounds/legit/left70.wav,,,,,5,10,185,25,,,,,,,,,,,,,,,left,0.669486999512,,,,,participant7,23,59.9408923314,F,trial,2017_May_28_1140,
,,0.62,"[-4.5, 0]",/sounds/legit/left70.wav,,,,,5,11,186,29,,,,,,,,,,,,,,,left,1.57120800018,,,,,participant7,23,59.9408923314,F,trial,2017_May_28_1140,
,,0.23,"[6.75, 0]",/sounds/legit/right100.wav,,,,,5,12,187,16,,,,,,,,,,,,,,,right,0.502676010132,,,,,participant7,23,59.9408923314,F,trial,2017_May_28_1140,
,,0.23,"[-2.25, 0]",/sounds/legit/left35.wav,,,,,5,13,188,21,,,,,,,,,,,,,,,left,0.0178461074829,,,,,participant7,23,59.9408923314,F,trial,2017_May_28_1140,
,,0.1,"[2.25, 0]",/sounds/legit/right35.wav,,,,,5,14,189,5,,,,,,,,,,,,,,,right,0.0348799228668,,,,,participant7,23,59.9408923314,F,trial,2017_May_28_1140,
,,0.36,"[0, 0]",/sounds/legit/equal.wav,,,,,5,15,190,2,,,,,,,,,,,,,,,left,1.00345396996,,,,,participant7,23,59.9408923314,F,trial,2017_May_28_1140,
,,0.49,"[0, 0]",/sounds/legit/equal.wav,,,,,5,16,191,3,,,,,,,,,,,,,,,left,0.318599224091,,,,,participant7,23,59.9408923314,F,trial,2017_May_28_1140,
,,0.62,"[4.5, 0]",/sounds/legit/right70.wav,,,,,5,17,192,14,,,,,,,,,,,,,,,left,0.168431997299,,,,,participant7,23,59.9408923314,F,trial,2017_May_28_1140,
,,0.36,"[-2.25, 0]",/sounds/legit/left35.wav,,,,,5,18,193,22,,,,,,,,,,,,,,,left,0.101562023163,,,,,participant7,23,59.9408923314,F,trial,2017_May_28_1140,
,,0.1,"[6.75, 0]",/sounds/legit/right100.wav,,,,,5,19,194,15,,,,,,,,,,,,,,,right,0.068235874176,,,,,participant7,23,59.9408923314,F,trial,2017_May_28_1140,
,,0.1,"[4.5, 0]",/sounds/legit/right70.wav,,,,,5,20,195,10,,,,,,,,,,,,,,,right,0.0349659919739,,,,,participant7,23,59.9408923314,F,trial,2017_May_28_1140,
,,0.36,"[-6.75, 0]",/sounds/legit/left100.wav,,,,,5,21,196,32,,,,,,,,,,,,,,,left,3.40861296654,,,,,participant7,23,59.9408923314,F,trial,2017_May_28_1140,
,,0.62,"[6.75, 0]",/sounds/legit/right100.wav,,,,,5,22,197,19,,,,,,,,,,,,,,,right,0.385606050491,,,,,participant7,23,59.9408923314,F,trial,2017_May_28_1140,
,,0.49,"[2.25, 0]",/sounds/legit/right35.wav,,,,,5,23,198,8,,,,,,,,,,,,,,,right,0.352072000504,,,,,participant7,23,59.9408923314,F,trial,2017_May_28_1140,
,,0.49,"[-6.75, 0]",/sounds/legit/left100.wav,,,,,5,24,199,33,,,,,,,,,,,,,,,left,0.0346200466156,,,,,participant7,23,59.9408923314,F,trial,2017_May_28_1140,
,,0.23,"[2.25, 0]",/sounds/legit/right35.wav,,,,,5,25,200,6,,,,,,,,,,,,,,,right,0.0680899620056,,,,,participant7,23,59.9408923314,F,trial,2017_May_28_1140,
,,0.23,"[0, 0]",/sounds/legit/equal.wav,,,,,5,26,201,1,,,,,,,,,,,,,,,left,0.60230588913,,,,,participant7,23,59.9408923314,F,trial,2017_May_28_1140,
,,0.1,"[-2.25, 0]",/sounds/legit/left35.wav,,,,,5,27,202,20,,,,,,,,,,,,,,,left,0.00131416320801,,,,,participant7,23,59.9408923314,F,trial,2017_May_28_1140,
,,0.1,"[0, 0]",/sounds/legit/equal.wav,,,,,5,28,203,0,,,,,,,,,,,,,,,left,0.0181930065155,,,,,participant7,23,59.9408923314,F,trial,2017_May_28_1140,
,,0.36,"[4.5, 0]",/sounds/legit/right70.wav,,,,,5,29,204,12,,,,,,,,,,,,,,,right,0.285319805145,,,,,participant7,23,59.9408923314,F,trial,2017_May_28_1140,
,,0.36,"[6.75, 0]",/sounds/legit/right100.wav,,,,,5,30,205,17,,,,,,,,,,,,,,,right,0.0514481067657,,,,,participant7,23,59.9408923314,F,trial,2017_May_28_1140,
,,0.1,"[-6.75, 0]",/sounds/legit/left100.wav,,,,,5,31,206,30,,,,,,,,,,,,,,,left,0.234924077988,,,,,participant7,23,59.9408923314,F,trial,2017_May_28_1140,
,,0.49,"[4.5, 0]",/sounds/legit/right70.wav,,,,,5,32,207,13,,,,,,,,,,,,,,,right,0.185135126114,,,,,participant7,23,59.9408923314,F,trial,2017_May_28_1140,
,,0.36,"[-4.5, 0]",/sounds/legit/left70.wav,,,,,5,33,208,27,,,,,,,,,,,,,,,left,0.0180258750916,,,,,participant7,23,59.9408923314,F,trial,2017_May_28_1140,
,,0.62,"[-6.75, 0]",/sounds/legit/left100.wav,,,,,5,34,209,34,,,,,,,,,,,,,,,left,3.64243102074,,,,,participant7,23,59.9408923314,F,trial,2017_May_28_1140,
,,0.49,"[-4.5, 0]",/sounds/legit/left70.wav,,,,,6,0,210,28,,,,,,,,,,,,,,,left,0.0180239677429,,,,,participant7,23,59.9408923314,F,trial,2017_May_28_1140,
,,0.23,"[-6.75, 0]",/sounds/legit/left100.wav,,,,,6,1,211,31,,,,,,,,,,,,,,,left,2.17250609398,,,,,participant7,23,59.9408923314,F,trial,2017_May_28_1140,
,,0.1,"[-4.5, 0]",/sounds/legit/left70.wav,,,,,6,2,212,25,,,,,,,,,,,,,,,left,2.59022188187,,,,,participant7,23,59.9408923314,F,trial,2017_May_28_1140,
,,0.1,"[4.5, 0]",/sounds/legit/right70.wav,,,,,6,3,213,10,,,,,,,,,,,,,,,right,0.452378034592,,,,,participant7,23,59.9408923314,F,trial,2017_May_28_1140,
,,0.23,"[-2.25, 0]",/sounds/legit/left35.wav,,,,,6,4,214,21,,,,,,,,,,,,,,,left,0.0515270233154,,,,,participant7,23,59.9408923314,F,trial,2017_May_28_1140,
,,0.36,"[0, 0]",/sounds/legit/equal.wav,,,,,6,5,215,2,,,,,,,,,,,,,,,left,0.0179219245911,,,,,participant7,23,59.9408923314,F,trial,2017_May_28_1140,
,,0.1,"[2.25, 0]",/sounds/legit/right35.wav,,,,,6,6,216,5,,,,,,,,,,,,,,,right,0.11835694313,,,,,participant7,23,59.9408923314,F,trial,2017_May_28_1140,
,,0.36,"[-6.75, 0]",/sounds/legit/left100.wav,,,,,6,7,217,32,,,,,,,,,,,,,,,left,3.65922403336,,,,,participant7,23,59.9408923314,F,trial,2017_May_28_1140,
,,0.49,"[-2.25, 0]",/sounds/legit/left35.wav,,,,,6,8,218,23,,,,,,,,,,,,,,,left,0.135143041611,,,,,participant7,23,59.9408923314,F,trial,2017_May_28_1140,
,,0.62,"[2.25, 0]",/sounds/legit/right35.wav,,,,,6,9,219,9,,,,,,,,,,,,,,,right,0.0512721538544,,,,,participant7,23,59.9408923314,F,trial,2017_May_28_1140,
,,0.62,"[0, 0]",/sounds/legit/equal.wav,,,,,6,10,220,4,,,,,,,,,,,,,,,left,3.92642402649,,,,,participant7,23,59.9408923314,F,trial,2017_May_28_1140,
,,0.36,"[2.25, 0]",/sounds/legit/right35.wav,,,,,6,11,221,7,,,,,,,,,,,,,,,right,0.389791965485,,,,,participant7,23,59.9408923314,F,trial,2017_May_28_1140,
,,0.23,"[4.5, 0]",/sounds/legit/right70.wav,,,,,6,12,222,11,,,,,,,,,,,,,,,right,0.0179419517517,,,,,participant7,23,59.9408923314,F,trial,2017_May_28_1140,
,,0.23,"[0, 0]",/sounds/legit/equal.wav,,,,,6,13,223,1,,,,,,,,,,,,,,,left,0.402007102966,,,,,participant7,23,59.9408923314,F,trial,2017_May_28_1140,
,,0.1,"[0, 0]",/sounds/legit/equal.wav,,,,,6,14,224,0,,,,,,,,,,,,,,,left,0.034795999527,,,,,participant7,23,59.9408923314,F,trial,2017_May_28_1140,
,,0.62,"[4.5, 0]",/sounds/legit/right70.wav,,,,,6,15,225,14,,,,,,,,,,,,,,,left,3.19161009789,,,,,participant7,23,59.9408923314,F,trial,2017_May_28_1140,
,,0.62,"[-6.75, 0]",/sounds/legit/left100.wav,,,,,6,16,226,34,,,,,,,,,,,,,,,right,0.218456983566,,,,,participant7,23,59.9408923314,F,trial,2017_May_28_1140,
,,0.49,"[-6.75, 0]",/sounds/legit/left100.wav,,,,,6,17,227,33,,,,,,,,,,,,,,,left,0.352092027664,,,,,participant7,23,59.9408923314,F,trial,2017_May_28_1140,
,,0.36,"[4.5, 0]",/sounds/legit/right70.wav,,,,,6,18,228,12,,,,,,,,,,,,,,,right,3.29184794426,,,,,participant7,23,59.9408923314,F,trial,2017_May_28_1140,
,,0.36,"[-2.25, 0]",/sounds/legit/left35.wav,,,,,6,19,229,22,,,,,,,,,,,,,,,left,0.0513789653778,,,,,participant7,23,59.9408923314,F,trial,2017_May_28_1140,
,,0.1,"[-6.75, 0]",/sounds/legit/left100.wav,,,,,6,20,230,30,,,,,,,,,,,,,,,left,0.986809968948,,,,,participant7,23,59.9408923314,F,trial,2017_May_28_1140,
,,0.1,"[6.75, 0]",/sounds/legit/right100.wav,,,,,6,21,231,15,,,,,,,,,,,,,,,right,0.26825094223,,,,,participant7,23,59.9408923314,F,trial,2017_May_28_1140,
,,0.1,"[-2.25, 0]",/sounds/legit/left35.wav,,,,,6,22,232,20,,,,,,,,,,,,,,,left,0.0180621147156,,,,,participant7,23,59.9408923314,F,trial,2017_May_28_1140,
,,0.49,"[6.75, 0]",/sounds/legit/right100.wav,,,,,6,23,233,18,,,,,,,,,,,,,,,right,0.051393032074,,,,,participant7,23,59.9408923314,F,trial,2017_May_28_1140,
,,0.49,"[4.5, 0]",/sounds/legit/right70.wav,,,,,6,24,234,13,,,,,,,,,,,,,,,right,0.018059015274,,,,,participant7,23,59.9408923314,F,trial,2017_May_28_1140,
,,0.62,"[6.75, 0]",/sounds/legit/right100.wav,,,,,6,25,235,19,,,,,,,,,,,,,,,right,0.034597158432,,,,,participant7,23,59.9408923314,F,trial,2017_May_28_1140,
,,0.49,"[2.25, 0]",/sounds/legit/right35.wav,,,,,6,26,236,8,,,,,,,,,,,,,,,right,0.0357649326324,,,,,participant7,23,59.9408923314,F,trial,2017_May_28_1140,
,,0.49,"[0, 0]",/sounds/legit/equal.wav,,,,,6,27,237,3,,,,,,,,,,,,,,,left,0.502068042755,,,,,participant7,23,59.9408923314,F,trial,2017_May_28_1140,
,,0.23,"[6.75, 0]",/sounds/legit/right100.wav,,,,,6,28,238,16,,,,,,,,,,,,,,,right,0.185203075409,,,,,participant7,23,59.9408923314,F,trial,2017_May_28_1140,
,,0.62,"[-2.25, 0]",/sounds/legit/left35.wav,,,,,6,29,239,24,,,,,,,,,,,,,,,left,0.135360956192,,,,,participant7,23,59.9408923314,F,trial,2017_May_28_1140,
,,0.62,"[-4.5, 0]",/sounds/legit/left70.wav,,,,,6,30,240,29,,,,,,,,,,,,,,,left,0.0347189903259,,,,,participant7,23,59.9408923314,F,trial,2017_May_28_1140,
,,0.36,"[6.75, 0]",/sounds/legit/right100.wav,,,,,6,31,241,17,,,,,,,,,,,,,,,right,0.0516290664673,,,,,participant7,23,59.9408923314,F,trial,2017_May_28_1140,
,,0.23,"[2.25, 0]",/sounds/legit/right35.wav,,,,,6,32,242,6,,,,,,,,,,,,,,,right,0.0347480773926,,,,,participant7,23,59.9408923314,F,trial,2017_May_28_1140,
,,0.23,"[-4.5, 0]",/sounds/legit/left70.wav,,,,,6,33,243,26,,,,,,,,,,,,,,,left,0.0345170497894,,,,,participant7,23,59.9408923314,F,trial,2017_May_28_1140,
,,0.36,"[-4.5, 0]",/sounds/legit/left70.wav,,,,,6,34,244,27,,,,,,,,,,,,,,,left,0.0849511623383,,,,,participant7,23,59.9408923314,F,trial,2017_May_28_1140,
,,0.1,"[0, 0]",/sounds/legit/equal.wav,,,,,7,0,245,0,,,,,,,,,,,,,,,left,0.0514361858368,,,,,participant7,23,59.9408923314,F,trial,2017_May_28_1140,
,,0.36,"[-4.5, 0]",/sounds/legit/left70.wav,,,,,7,1,246,27,,,,,,,,,,,,,,,left,0.151473045349,,,,,participant7,23,59.9408923314,F,trial,2017_May_28_1140,
,,0.36,"[-2.25, 0]",/sounds/legit/left35.wav,,,,,7,2,247,22,,,,,,,,,,,,,,,left,3.34195995331,,,,,participant7,23,59.9408923314,F,trial,2017_May_28_1140,
,,0.1,"[-2.25, 0]",/sounds/legit/left35.wav,,,,,7,3,248,20,,,,,,,,,,,,,,,left,3.97643089294,,,,,participant7,23,59.9408923314,F,trial,2017_May_28_1140,
,,0.62,"[-2.25, 0]",/sounds/legit/left35.wav,,,,,7,4,249,24,,,,,,,,,,,,,,,left,0.0348329544067,,,,,participant7,23,59.9408923314,F,trial,2017_May_28_1140,
,,0.49,"[4.5, 0]",/sounds/legit/right70.wav,,,,,7,5,250,13,,,,,,,,,,,,,,,right,0.101445913315,,,,,participant7,23,59.9408923314,F,trial,2017_May_28_1140,
,,0.49,"[-4.5, 0]",/sounds/legit/left70.wav,,,,,7,6,251,28,,,,,,,,,,,,,,,left,1.77168488503,,,,,participant7,23,59.9408923314,F,trial,2017_May_28_1140,
,,0.1,"[2.25, 0]",/sounds/legit/right35.wav,,,,,7,7,252,5,,,,,,,,,,,,,,,right,0.135146856308,,,,,participant7,23,59.9408923314,F,trial,2017_May_28_1140,
,,0.49,"[0, 0]",/sounds/legit/equal.wav,,,,,7,8,253,3,,,,,,,,,,,,,,,left,0.452513217926,,,,,participant7,23,59.9408923314,F,trial,2017_May_28_1140,
,,0.1,"[4.5, 0]",/sounds/legit/right70.wav,,,,,7,9,254,10,,,,,,,,,,,,,,,right,0.0680899620056,,,,,participant7,23,59.9408923314,F,trial,2017_May_28_1140,
,,0.36,"[-6.75, 0]",/sounds/legit/left100.wav,,,,,7,10,255,32,,,,,,,,,,,,,,,left,0.051745891571,,,,,participant7,23,59.9408923314,F,trial,2017_May_28_1140,
,,0.36,"[2.25, 0]",/sounds/legit/right35.wav,,,,,7,11,256,7,,,,,,,,,,,,,,,left,4.61143803596,,,,,participant7,23,59.9408923314,F,trial,2017_May_28_1140,
,,0.1,"[-4.5, 0]",/sounds/legit/left70.wav,,,,,7,12,257,25,,,,,,,,,,,,,,,left,0.151697158813,,,,,participant7,23,59.9408923314,F,trial,2017_May_28_1140,
,,0.36,"[0, 0]",/sounds/legit/equal.wav,,,,,7,13,258,2,,,,,,,,,,,,,,,right,0.920005083084,,,,,participant7,23,59.9408923314,F,trial,2017_May_28_1140,
,,0.1,"[6.75, 0]",/sounds/legit/right100.wav,,,,,7,14,259,15,,,,,,,,,,,,,,,right,0.402143955231,,,,,participant7,23,59.9408923314,F,trial,2017_May_28_1140,
,,0.36,"[6.75, 0]",/sounds/legit/right100.wav,,,,,7,15,260,17,,,,,,,,,,,,,,,right,0.0012800693512,,,,,participant7,23,59.9408923314,F,trial,2017_May_28_1140,
,,0.23,"[0, 0]",/sounds/legit/equal.wav,,,,,7,16,261,1,,,,,,,,,,,,,,,left,0.0516180992126,,,,,participant7,23,59.9408923314,F,trial,2017_May_28_1140,
,,0.49,"[6.75, 0]",/sounds/legit/right100.wav,,,,,7,17,262,18,,,,,,,,,,,,,,,right,0.067950963974,,,,,participant7,23,59.9408923314,F,trial,2017_May_28_1140,
,,0.23,"[6.75, 0]",/sounds/legit/right100.wav,,,,,7,18,263,16,,,,,,,,,,,,,,,right,0.0347938537598,,,,,participant7,23,59.9408923314,F,trial,2017_May_28_1140,
,,0.62,"[0, 0]",/sounds/legit/equal.wav,,,,,7,19,264,4,,,,,,,,,,,,,,,left,0.0847058296204,,,,,participant7,23,59.9408923314,F,trial,2017_May_28_1140,
,,0.23,"[4.5, 0]",/sounds/legit/right70.wav,,,,,7,20,265,11,,,,,,,,,,,,,,,right,3.72625207901,,,,,participant7,23,59.9408923314,F,trial,2017_May_28_1140,
,,0.23,"[-6.75, 0]",/sounds/legit/left100.wav,,,,,7,21,266,31,,,,,,,,,,,,,,,left,5.2624270916,,,,,participant7,23,59.9408923314,F,trial,2017_May_28_1140,
,,0.23,"[-4.5, 0]",/sounds/legit/left70.wav,,,,,7,22,267,26,,,,,,,,,,,,,,,left,0.0349910259247,,,,,participant7,23,59.9408923314,F,trial,2017_May_28_1140,
,,0.62,"[-4.5, 0]",/sounds/legit/left70.wav,,,,,7,23,268,29,,,,,,,,,,,,,,,left,2.35657906532,,,,,participant7,23,59.9408923314,F,trial,2017_May_28_1140,
,,0.36,"[4.5, 0]",/sounds/legit/right70.wav,,,,,7,24,269,12,,,,,,,,,,,,,,,right,0.001296043396,,,,,participant7,23,59.9408923314,F,trial,2017_May_28_1140,
,,0.62,"[6.75, 0]",/sounds/legit/right100.wav,,,,,7,25,270,19,,,,,,,,,,,,,,,left,0.0681500434875,,,,,participant7,23,59.9408923314,F,trial,2017_May_28_1140,
,,0.62,"[2.25, 0]",/sounds/legit/right35.wav,,,,,7,26,271,9,,,,,,,,,,,,,,,right,0.050411939621,,,,,participant7,23,59.9408923314,F,trial,2017_May_28_1140,
,,0.23,"[2.25, 0]",/sounds/legit/right35.wav,,,,,7,27,272,6,,,,,,,,,,,,,,,right,2.43952083588,,,,,participant7,23,59.9408923314,F,trial,2017_May_28_1140,
,,0.1,"[-6.75, 0]",/sounds/legit/left100.wav,,,,,7,28,273,30,,,,,,,,,,,,,,,left,0.535840034485,,,,,participant7,23,59.9408923314,F,trial,2017_May_28_1140,
,,0.62,"[-6.75, 0]",/sounds/legit/left100.wav,,,,,7,29,274,34,,,,,,,,,,,,,,,left,0.118191003799,,,,,participant7,23,59.9408923314,F,trial,2017_May_28_1140,
,,0.62,"[4.5, 0]",/sounds/legit/right70.wav,,,,,7,30,275,14,,,,,,,,,,,,,,,right,0.0681338310242,,,,,participant7,23,59.9408923314,F,trial,2017_May_28_1140,
,,0.49,"[-6.75, 0]",/sounds/legit/left100.wav,,,,,7,31,276,33,,,,,,,,,,,,,,,left,0.0178420543671,,,,,participant7,23,59.9408923314,F,trial,2017_May_28_1140,
,,0.49,"[2.25, 0]",/sounds/legit/right35.wav,,,,,7,32,277,8,,,,,,,,,,,,,,,right,0.0850319862366,,,,,participant7,23,59.9408923314,F,trial,2017_May_28_1140,
,,0.49,"[-2.25, 0]",/sounds/legit/left35.wav,,,,,7,33,278,23,,,,,,,,,,,,,,,left,0.0347239971161,,,,,participant7,23,59.9408923314,F,trial,2017_May_28_1140,
,,0.23,"[-2.25, 0]",/sounds/legit/left35.wav,,,,,7,34,279,21,,,,,,,,,,,,,,,left,3.64248514175,,,,,participant7,23,59.9408923314,F,trial,2017_May_28_1140,
,,0.1,"[4.5, 0]",/sounds/legit/right70.wav,,,,,8,0,280,10,,,,,,,,,,,,,,,left,3.80986404419,,,,,participant7,23,59.9408923314,F,trial,2017_May_28_1140,
,,0.1,"[-6.75, 0]",/sounds/legit/left100.wav,,,,,8,1,281,30,,,,,,,,,,,,,,,left,0.251960992813,,,,,participant7,23,59.9408923314,F,trial,2017_May_28_1140,
,,0.1,"[0, 0]",/sounds/legit/equal.wav,,,,,8,2,282,0,,,,,,,,,,,,,,,left,0.0349259376526,,,,,participant7,23,59.9408923314,F,trial,2017_May_28_1140,
,,0.23,"[4.5, 0]",/sounds/legit/right70.wav,,,,,8,3,283,11,,,,,,,,,,,,,,,right,0.0360660552979,,,,,participant7,23,59.9408923314,F,trial,2017_May_28_1140,
,,0.49,"[6.75, 0]",/sounds/legit/right100.wav,,,,,8,4,284,18,,,,,,,,,,,,,,,left,0.118210077286,,,,,participant7,23,59.9408923314,F,trial,2017_May_28_1140,
,,0.1,"[-4.5, 0]",/sounds/legit/left70.wav,,,,,8,5,285,25,,,,,,,,,,,,,,,left,0.000388860702515,,,,,participant7,23,59.9408923314,F,trial,2017_May_28_1140,
,,0.23,"[2.25, 0]",/sounds/legit/right35.wav,,,,,8,6,286,6,,,,,,,,,,,,,,,right,5.22899508476,,,,,participant7,23,59.9408923314,F,trial,2017_May_28_1140,
,,0.49,"[2.25, 0]",/sounds/legit/right35.wav,,,,,8,7,287,8,,,,,,,,,,,,,,,right,0.235291004181,,,,,participant7,23,59.9408923314,F,trial,2017_May_28_1140,
,,0.62,"[-6.75, 0]",/sounds/legit/left100.wav,,,,,8,8,288,34,,,,,,,,,,,,,,,left,0.218521118164,,,,,participant7,23,59.9408923314,F,trial,2017_May_28_1140,
,,0.49,"[-4.5, 0]",/sounds/legit/left70.wav,,,,,8,9,289,28,,,,,,,,,,,,,,,left,0.185080051422,,,,,participant7,23,59.9408923314,F,trial,2017_May_28_1140,
,,0.23,"[-4.5, 0]",/sounds/legit/left70.wav,,,,,8,10,290,26,,,,,,,,,,,,,,,left,4.94519805908,,,,,participant7,23,59.9408923314,F,trial,2017_May_28_1140,
,,0.62,"[-4.5, 0]",/sounds/legit/left70.wav,,,,,8,11,291,29,,,,,,,,,,,,,,,left,0.0850718021393,,,,,participant7,23,59.9408923314,F,trial,2017_May_28_1140,
,,0.36,"[4.5, 0]",/sounds/legit/right70.wav,,,,,8,12,292,12,,,,,,,,,,,,,,,right,0.0513978004456,,,,,participant7,23,59.9408923314,F,trial,2017_May_28_1140,
,,0.36,"[0, 0]",/sounds/legit/equal.wav,,,,,8,13,293,2,,,,,,,,,,,,,,,right,0.519176006317,,,,,participant7,23,59.9408923314,F,trial,2017_May_28_1140,
,,0.62,"[0, 0]",/sounds/legit/equal.wav,,,,,8,14,294,4,,,,,,,,,,,,,,,left,0.168377876282,,,,,participant7,23,59.9408923314,F,trial,2017_May_28_1140,
,,0.49,"[0, 0]",/sounds/legit/equal.wav,,,,,8,15,295,3,,,,,,,,,,,,,,,left,0.118055105209,,,,,participant7,23,59.9408923314,F,trial,2017_May_28_1140,
,,0.23,"[-6.75, 0]",/sounds/legit/left100.wav,,,,,8,16,296,31,,,,,,,,,,,,,,,left,0.218470096588,,,,,participant7,23,59.9408923314,F,trial,2017_May_28_1140,
,,0.49,"[-2.25, 0]",/sounds/legit/left35.wav,,,,,8,17,297,23,,,,,,,,,,,,,,,left,0.2855489254,,,,,participant7,23,59.9408923314,F,trial,2017_May_28_1140,
,,0.23,"[-2.25, 0]",/sounds/legit/left35.wav,,,,,8,18,298,21,,,,,,,,,,,,,,,left,0.63591504097,,,,,participant7,23,59.9408923314,F,trial,2017_May_28_1140,
,,0.1,"[6.75, 0]",/sounds/legit/right100.wav,,,,,8,19,299,15,,,,,,,,,,,,,,,right,0.635904073715,,,,,participant7,23,59.9408923314,F,trial,2017_May_28_1140,
,,0.23,"[6.75, 0]",/sounds/legit/right100.wav,,,,,8,20,300,16,,,,,,,,,,,,,,,right,0.469184160233,,,,,participant7,23,59.9408923314,F,trial,2017_May_28_1140,
,,0.36,"[-2.25, 0]",/sounds/legit/left35.wav,,,,,8,21,301,22,,,,,,,,,,,,,,,left,0.301939964294,,,,,participant7,23,59.9408923314,F,trial,2017_May_28_1140,
,,0.49,"[4.5, 0]",/sounds/legit/right70.wav,,,,,8,22,302,13,,,,,,,,,,,,,,,right,0.0347671508789,,,,,participant7,23,59.9408923314,F,trial,2017_May_28_1140,
,,0.62,"[6.75, 0]",/sounds/legit/right100.wav,,,,,8,23,303,19,,,,,,,,,,,,,,,right,0.0849039554596,,,,,participant7,23,59.9408923314,F,trial,2017_May_28_1140,
,,0.62,"[-2.25, 0]",/sounds/legit/left35.wav,,,,,8,24,304,24,,,,,,,,,,,,,,,left,4.72831296921,,,,,participant7,23,59.9408923314,F,trial,2017_May_28_1140,
,,0.1,"[-2.25, 0]",/sounds/legit/left35.wav,,,,,8,25,305,20,,,,,,,,,,,,,,,left,3.74267101288,,,,,participant7,23,59.9408923314,F,trial,2017_May_28_1140,
,,0.36,"[2.25, 0]",/sounds/legit/right35.wav,,,,,8,26,306,7,,,,,,,,,,,,,,,right,0.0847849845886,,,,,participant7,23,59.9408923314,F,trial,2017_May_28_1140,
,,0.49,"[-6.75, 0]",/sounds/legit/left100.wav,,,,,8,27,307,33,,,,,,,,,,,,,,,left,0.118050813675,,,,,participant7,23,59.9408923314,F,trial,2017_May_28_1140,
,,0.62,"[2.25, 0]",/sounds/legit/right35.wav,,,,,8,28,308,9,,,,,,,,,,,,,,,right,0.101490020752,,,,,participant7,23,59.9408923314,F,trial,2017_May_28_1140,
,,0.36,"[-6.75, 0]",/sounds/legit/left100.wav,,,,,8,29,309,32,,,,,,,,,,,,,,,left,0.168662071228,,,,,participant7,23,59.9408923314,F,trial,2017_May_28_1140,
,,0.23,"[0, 0]",/sounds/legit/equal.wav,,,,,8,30,310,1,,,,,,,,,,,,,,,left,0.301969051361,,,,,participant7,23,59.9408923314,F,trial,2017_May_28_1140,
,,0.62,"[4.5, 0]",/sounds/legit/right70.wav,,,,,8,31,311,14,,,,,,,,,,,,,,,right,0.369014024734,,,,,participant7,23,59.9408923314,F,trial,2017_May_28_1140,
,,0.36,"[6.75, 0]",/sounds/legit/right100.wav,,,,,8,32,312,17,,,,,,,,,,,,,,,right,0.0513660907745,,,,,participant7,23,59.9408923314,F,trial,2017_May_28_1140,
,,0.36,"[-4.5, 0]",/sounds/legit/left70.wav,,,,,8,33,313,27,,,,,,,,,,,,,,,left,3.04107999802,,,,,participant7,23,59.9408923314,F,trial,2017_May_28_1140,
,,0.1,"[2.25, 0]",/sounds/legit/right35.wav,,,,,8,34,314,5,,,,,,,,,,,,,,,right,0.0178499221802,,,,,participant7,23,59.9408923314,F,trial,2017_May_28_1140,
,,0.36,"[2.25, 0]",/sounds/legit/right35.wav,,,,,9,0,315,7,,,,,,,,,,,,,,,right,0.00131392478943,,,,,participant7,23,59.9408923314,F,trial,2017_May_28_1140,
,,0.23,"[2.25, 0]",/sounds/legit/right35.wav,,,,,9,1,316,6,,,,,,,,,,,,,,,right,3.47573804855,,,,,participant7,23,59.9408923314,F,trial,2017_May_28_1140,
,,0.1,"[-2.25, 0]",/sounds/legit/left35.wav,,,,,9,2,317,20,,,,,,,,,,,,,,,left,5.98106193542,,,,,participant7,23,59.9408923314,F,trial,2017_May_28_1140,
,,0.1,"[-4.5, 0]",/sounds/legit/left70.wav,,,,,9,3,318,25,,,,,,,,,,,,,,,left,5.01229596138,,,,,participant7,23,59.9408923314,F,trial,2017_May_28_1140,
,,0.62,"[-6.75, 0]",/sounds/legit/left100.wav,,,,,9,4,319,34,,,,,,,,,,,,,,,left,0.853111982346,,,,,participant7,23,59.9408923314,F,trial,2017_May_28_1140,
,,0.49,"[0, 0]",/sounds/legit/equal.wav,,,,,9,5,320,3,,,,,,,,,,,,,,,left,0.151773929596,,,,,participant7,23,59.9408923314,F,trial,2017_May_28_1140,
,,0.36,"[-2.25, 0]",/sounds/legit/left35.wav,,,,,9,6,321,22,,,,,,,,,,,,,,,left,4.81140422821,,,,,participant7,23,59.9408923314,F,trial,2017_May_28_1140,
,,0.23,"[-6.75, 0]",/sounds/legit/left100.wav,,,,,9,7,322,31,,,,,,,,,,,,,,,left,0.235068082809,,,,,participant7,23,59.9408923314,F,trial,2017_May_28_1140,
,,0.23,"[-2.25, 0]",/sounds/legit/left35.wav,,,,,9,8,323,21,,,,,,,,,,,,,,,left,3.72604703903,,,,,participant7,23,59.9408923314,F,trial,2017_May_28_1140,
,,0.49,"[-6.75, 0]",/sounds/legit/left100.wav,,,,,9,9,324,33,,,,,,,,,,,,,,,left,0.00122690200806,,,,,participant7,23,59.9408923314,F,trial,2017_May_28_1140,
,,0.1,"[0, 0]",/sounds/legit/equal.wav,,,,,9,10,325,0,,,,,,,,,,,,,,,left,4.27693009377,,,,,participant7,23,59.9408923314,F,trial,2017_May_28_1140,
,,0.49,"[6.75, 0]",/sounds/legit/right100.wav,,,,,9,11,326,18,,,,,,,,,,,,,,,right,1.20416021347,,,,,participant7,23,59.9408923314,F,trial,2017_May_28_1140,
,,0.36,"[-4.5, 0]",/sounds/legit/left70.wav,,,,,9,12,327,27,,,,,,,,,,,,,,,left,0.0171051025391,,,,,participant7,23,59.9408923314,F,trial,2017_May_28_1140,
,,0.49,"[2.25, 0]",/sounds/legit/right35.wav,,,,,9,13,328,8,,,,,,,,,,,,,,,right,0.435631990433,,,,,participant7,23,59.9408923314,F,trial,2017_May_28_1140,
,,0.1,"[6.75, 0]",/sounds/legit/right100.wav,,,,,9,14,329,15,,,,,,,,,,,,,,,right,0.0180377960205,,,,,participant7,23,59.9408923314,F,trial,2017_May_28_1140,
,,0.62,"[4.5, 0]",/sounds/legit/right70.wav,,,,,9,15,330,14,,,,,,,,,,,,,,,right,0.0514049530029,,,,,participant7,23,59.9408923314,F,trial,2017_May_28_1140,
,,0.1,"[4.5, 0]",/sounds/legit/right70.wav,,,,,9,16,331,10,,,,,,,,,,,,,,,right,6.01433491707,,,,,participant7,23,59.9408923314,F,trial,2017_May_28_1140,
,,0.62,"[0, 0]",/sounds/legit/equal.wav,,,,,9,17,332,4,,,,,,,,,,,,,,,left,0.0347399711609,,,,,participant7,23,59.9408923314,F,trial,2017_May_28_1140,
,,0.23,"[-4.5, 0]",/sounds/legit/left70.wav,,,,,9,18,333,26,,,,,,,,,,,,,,,left,5.07865381241,,,,,participant7,23,59.9408923314,F,trial,2017_May_28_1140,
,,0.36,"[0, 0]",/sounds/legit/equal.wav,,,,,9,19,334,2,,,,,,,,,,,,,,,right,1.02002906799,,,,,participant7,23,59.9408923314,F,trial,2017_May_28_1140,
,,0.36,"[-6.75, 0]",/sounds/legit/left100.wav,,,,,9,20,335,32,,,,,,,,,,,,,,,left,0.118280172348,,,,,participant7,23,59.9408923314,F,trial,2017_May_28_1140,
,,0.62,"[-2.25, 0]",/sounds/legit/left35.wav,,,,,9,21,336,24,,,,,,,,,,,,,,,right,4.81170606613,,,,,participant7,23,59.9408923314,F,trial,2017_May_28_1140,
,,0.49,"[-4.5, 0]",/sounds/legit/left70.wav,,,,,9,22,337,28,,,,,,,,,,,,,,,left,0.00139093399048,,,,,participant7,23,59.9408923314,F,trial,2017_May_28_1140,
,,0.1,"[2.25, 0]",/sounds/legit/right35.wav,,,,,9,23,338,5,,,,,,,,,,,,,,,right,0.00144386291504,,,,,participant7,23,59.9408923314,F,trial,2017_May_28_1140,
,,0.23,"[4.5, 0]",/sounds/legit/right70.wav,,,,,9,24,339,11,,,,,,,,,,,,,,,right,4.39416909218,,,,,participant7,23,59.9408923314,F,trial,2017_May_28_1140,
,,0.49,"[-2.25, 0]",/sounds/legit/left35.wav,,,,,9,25,340,23,,,,,,,,,,,,,,,left,3.39163708687,,,,,participant7,23,59.9408923314,F,trial,2017_May_28_1140,
,,0.62,"[-4.5, 0]",/sounds/legit/left70.wav,,,,,9,26,341,29,,,,,,,,,,,,,,,left,1.47094106674,,,,,participant7,23,59.9408923314,F,trial,2017_May_28_1140,
,,0.23,"[0, 0]",/sounds/legit/equal.wav,,,,,9,27,342,1,,,,,,,,,,,,,,,left,0.602622032166,,,,,participant7,23,59.9408923314,F,trial,2017_May_28_1140,
,,0.36,"[6.75, 0]",/sounds/legit/right100.wav,,,,,9,28,343,17,,,,,,,,,,,,,,,right,0.686262130737,,,,,participant7,23,59.9408923314,F,trial,2017_May_28_1140,
,,0.62,"[6.75, 0]",/sounds/legit/right100.wav,,,,,9,29,344,19,,,,,,,,,,,,,,,right,0.651736021042,,,,,participant7,23,59.9408923314,F,trial,2017_May_28_1140,
,,0.23,"[6.75, 0]",/sounds/legit/right100.wav,,,,,9,30,345,16,,,,,,,,,,,,,,,right,0.135422945023,,,,,participant7,23,59.9408923314,F,trial,2017_May_28_1140,
,,0.49,"[4.5, 0]",/sounds/legit/right70.wav,,,,,9,31,346,13,,,,,,,,,,,,,,,right,3.4921939373,,,,,participant7,23,59.9408923314,F,trial,2017_May_28_1140,
,,0.1,"[-6.75, 0]",/sounds/legit/left100.wav,,,,,9,32,347,30,,,,,,,,,,,,,,,left,4.34395003319,,,,,participant7,23,59.9408923314,F,trial,2017_May_28_1140,
,,0.36,"[4.5, 0]",/sounds/legit/right70.wav,,,,,9,33,348,12,,,,,,,,,,,,,,,right,0.0670850276947,,,,,participant7,23,59.9408923314,F,trial,2017_May_28_1140,
,,0.62,"[2.25, 0]",/sounds/legit/right35.wav,,,,,9,34,349,9,,,,,,,,,,,,,,,right,0.218399047852,,,,,participant7,23,59.9408923314,F,trial,2017_May_28_1140,
,,,,,,,,,,,,,,,,,,,,,,,,,,,,,space,23.3015048504,,,participant7,23,59.9408923314,F,trial,2017_May_28_1140,
,,0.1,"[-2.25, 0]",/sounds/legit/left35.wav,,,,,,,,,0,0,0,20,,,,,,,,,,,,,,,left,1.97224807739,participant7,23,59.9408923314,F,trial,2017_May_28_1140,
,,0.36,"[6.75, 0]",/sounds/legit/right100.wav,,,,,,,,,0,1,1,17,,,,,,,,,,,,,,,right,0.252363920212,participant7,23,59.9408923314,F,trial,2017_May_28_1140,
,,0.36,"[0, 0]",/sounds/legit/equal.wav,,,,,,,,,0,2,2,2,,,,,,,,,,,,,,,right,3.87632203102,participant7,23,59.9408923314,F,trial,2017_May_28_1140,
,,0.36,"[-6.75, 0]",/sounds/legit/left100.wav,,,,,,,,,0,3,3,32,,,,,,,,,,,,,,,left,0.95335817337,participant7,23,59.9408923314,F,trial,2017_May_28_1140,
,,0.62,"[-4.5, 0]",/sounds/legit/left70.wav,,,,,,,,,0,4,4,29,,,,,,,,,,,,,,,left,0.402085065842,participant7,23,59.9408923314,F,trial,2017_May_28_1140,
,,0.23,"[-6.75, 0]",/sounds/legit/left100.wav,,,,,,,,,0,5,5,31,,,,,,,,,,,,,,,left,0.21878194809,participant7,23,59.9408923314,F,trial,2017_May_28_1140,
,,0.49,"[6.75, 0]",/sounds/legit/right100.wav,,,,,,,,,0,6,6,18,,,,,,,,,,,,,,,right,0.218561887741,participant7,23,59.9408923314,F,trial,2017_May_28_1140,
,,0.62,"[-4.5, 0]",/sounds/legit/left70.wav,,,,,,,,,0,7,7,29,,,,,,,,,,,,,,,left,1.47086405754,participant7,23,59.9408923314,F,trial,2017_May_28_1140,
,,0.49,"[2.25, 0]",/sounds/legit/right35.wav,,,,,,,,,0,8,8,8,,,,,,,,,,,,,,,right,0.184845924377,participant7,23,59.9408923314,F,trial,2017_May_28_1140,
,,0.36,"[0, 0]",/sounds/legit/equal.wav,,,,,,,,,0,9,9,2,,,,,,,,,,,,,,,right,0.168423891068,participant7,23,59.9408923314,F,trial,2017_May_28_1140,
,,0.36,"[4.5, 0]",/sounds/legit/right70.wav,,,,,,,,,0,10,10,12,,,,,,,,,,,,,,,right,0.819766998291,participant7,23,59.9408923314,F,trial,2017_May_28_1140,
,,0.1,"[-2.25, 0]",/sounds/legit/left35.wav,,,,,,,,,0,11,11,20,,,,,,,,,,,,,,,right,0.535793066025,participant7,23,59.9408923314,F,trial,2017_May_28_1140,
,,0.49,"[2.25, 0]",/sounds/legit/right35.wav,,,,,,,,,0,12,12,8,,,,,,,,,,,,,,,right,0.334517002106,participant7,23,59.9408923314,F,trial,2017_May_28_1140,
,,0.23,"[-6.75, 0]",/sounds/legit/left100.wav,,,,,,,,,0,13,13,31,,,,,,,,,,,,,,,left,0.118077039719,participant7,23,59.9408923314,F,trial,2017_May_28_1140,
,,0.23,"[-2.25, 0]",/sounds/legit/left35.wav,,,,,,,,,0,14,14,21,,,,,,,,,,,,,,,left,0.0514280796051,participant7,23,59.9408923314,F,trial,2017_May_28_1140,
,,0.1,"[6.75, 0]",/sounds/legit/right100.wav,,,,,,,,,0,15,15,15,,,,,,,,,,,,,,,right,0.102528810501,participant7,23,59.9408923314,F,trial,2017_May_28_1140,
,,0.36,"[4.5, 0]",/sounds/legit/right70.wav,,,,,,,,,0,16,16,12,,,,,,,,,,,,,,,right,0.151576042175,participant7,23,59.9408923314,F,trial,2017_May_28_1140,
,,0.1,"[0, 0]",/sounds/legit/equal.wav,,,,,,,,,0,17,17,0,,,,,,,,,,,,,,,right,0.118396997452,participant7,23,59.9408923314,F,trial,2017_May_28_1140,
,,0.62,"[2.25, 0]",/sounds/legit/right35.wav,,,,,,,,,0,18,18,9,,,,,,,,,,,,,,,right,0.051451921463,participant7,23,59.9408923314,F,trial,2017_May_28_1140,
,,0.36,"[6.75, 0]",/sounds/legit/right100.wav,,,,,,,,,0,19,19,17,,,,,,,,,,,,,,,right,0.0014181137085,participant7,23,59.9408923314,F,trial,2017_May_28_1140,
,,0.1,"[-6.75, 0]",/sounds/legit/left100.wav,,,,,,,,,0,20,20,30,,,,,,,,,,,,,,,left,0.251747131348,participant7,23,59.9408923314,F,trial,2017_May_28_1140,
,,0.62,"[0, 0]",/sounds/legit/equal.wav,,,,,,,,,0,21,21,4,,,,,,,,,,,,,,,left,0.0848050117493,participant7,23,59.9408923314,F,trial,2017_May_28_1140,
,,0.23,"[4.5, 0]",/sounds/legit/right70.wav,,,,,,,,,0,22,22,11,,,,,,,,,,,,,,,right,0.218311071396,participant7,23,59.9408923314,F,trial,2017_May_28_1140,
,,0.1,"[-6.75, 0]",/sounds/legit/left100.wav,,,,,,,,,0,23,23,30,,,,,,,,,,,,,,,left,1.00336885452,participant7,23,59.9408923314,F,trial,2017_May_28_1140,
,,0.62,"[6.75, 0]",/sounds/legit/right100.wav,,,,,,,,,0,24,24,19,,,,,,,,,,,,,,,right,0.118366003036,participant7,23,59.9408923314,F,trial,2017_May_28_1140,
,,0.36,"[2.25, 0]",/sounds/legit/right35.wav,,,,,,,,,0,25,25,7,,,,,,,,,,,,,,,right,0.118352890015,participant7,23,59.9408923314,F,trial,2017_May_28_1140,
,,0.62,"[-2.25, 0]",/sounds/legit/left35.wav,,,,,,,,,0,26,26,24,,,,,,,,,,,,,,,left,0.385436058044,participant7,23,59.9408923314,F,trial,2017_May_28_1140,
,,0.62,"[6.75, 0]",/sounds/legit/right100.wav,,,,,,,,,0,27,27,19,,,,,,,,,,,,,,,right,0.100680828094,participant7,23,59.9408923314,F,trial,2017_May_28_1140,
,,0.23,"[-2.25, 0]",/sounds/legit/left35.wav,,,,,,,,,0,28,28,21,,,,,,,,,,,,,,,left,0.0514988899231,participant7,23,59.9408923314,F,trial,2017_May_28_1140,
,,0.49,"[6.75, 0]",/sounds/legit/right100.wav,,,,,,,,,0,29,29,18,,,,,,,,,,,,,,,right,0.185047864914,participant7,23,59.9408923314,F,trial,2017_May_28_1140,
,,0.23,"[-6.75, 0]",/sounds/legit/left100.wav,,,,,,,,,0,30,30,31,,,,,,,,,,,,,,,left,0.00136685371399,participant7,23,59.9408923314,F,trial,2017_May_28_1140,
,,0.49,"[2.25, 0]",/sounds/legit/right35.wav,,,,,,,,,0,31,31,8,,,,,,,,,,,,,,,right,0.00125789642334,participant7,23,59.9408923314,F,trial,2017_May_28_1140,
,,0.1,"[6.75, 0]",/sounds/legit/right100.wav,,,,,,,,,0,32,32,15,,,,,,,,,,,,,,,right,0.853315114975,participant7,23,59.9408923314,F,trial,2017_May_28_1140,
,,0.62,"[2.25, 0]",/sounds/legit/right35.wav,,,,,,,,,0,33,33,9,,,,,,,,,,,,,,,right,0.16813993454,participant7,23,59.9408923314,F,trial,2017_May_28_1140,
,,0.23,"[-6.75, 0]",/sounds/legit/left100.wav,,,,,,,,,0,34,34,31,,,,,,,,,,,,,,,left,0.0345401763916,participant7,23,59.9408923314,F,trial,2017_May_28_1140,
,,0.1,"[0, 0]",/sounds/legit/equal.wav,,,,,,,,,1,0,35,0,,,,,,,,,,,,,,,right,0.118328809738,participant7,23,59.9408923314,F,trial,2017_May_28_1140,
,,0.62,"[6.75, 0]",/sounds/legit/right100.wav,,,,,,,,,1,1,36,19,,,,,,,,,,,,,,,right,0.168621063232,participant7,23,59.9408923314,F,trial,2017_May_28_1140,
,,0.62,"[-2.25, 0]",/sounds/legit/left35.wav,,,,,,,,,1,2,37,24,,,,,,,,,,,,,,,left,0.0348529815674,participant7,23,59.9408923314,F,trial,2017_May_28_1140,
,,0.23,"[6.75, 0]",/sounds/legit/right100.wav,,,,,,,,,1,3,38,16,,,,,,,,,,,,,,,right,0.669808149338,participant7,23,59.9408923314,F,trial,2017_May_28_1140,
,,0.49,"[-2.25, 0]",/sounds/legit/left35.wav,,,,,,,,,1,4,39,23,,,,,,,,,,,,,,,left,0.1185297966,participant7,23,59.9408923314,F,trial,2017_May_28_1140,
,,0.23,"[0, 0]",/sounds/legit/equal.wav,,,,,,,,,1,5,40,1,,,,,,,,,,,,,,,right,0.00150084495544,participant7,23,59.9408923314,F,trial,2017_May_28_1140,
,,0.62,"[-2.25, 0]",/sounds/legit/left35.wav,,,,,,,,,1,6,41,24,,,,,,,,,,,,,,,right,0.118190050125,participant7,23,59.9408923314,F,trial,2017_May_28_1140,
,,0.36,"[4.5, 0]",/sounds/legit/right70.wav,,,,,,,,,1,7,42,12,,,,,,,,,,,,,,,right,0.502547025681,participant7,23,59.9408923314,F,trial,2017_May_28_1140,
,,0.1,"[2.25, 0]",/sounds/legit/right35.wav,,,,,,,,,1,8,43,5,,,,,,,,,,,,,,,right,0.452130079269,participant7,23,59.9408923314,F,trial,2017_May_28_1140,
,,0.36,"[0, 0]",/sounds/legit/equal.wav,,,,,,,,,1,9,44,2,,,,,,,,,,,,,,,right,0.452125072479,participant7,23,59.9408923314,F,trial,2017_May_28_1140,
,,0.23,"[-4.5, 0]",/sounds/legit/left70.wav,,,,,,,,,1,10,45,26,,,,,,,,,,,,,,,left,0.0347850322723,participant7,23,59.9408923314,F,trial,2017_May_28_1140,
,,0.1,"[0, 0]",/sounds/legit/equal.wav,,,,,,,,,1,11,46,0,,,,,,,,,,,,,,,right,0.61966586113,participant7,23,59.9408923314,F,trial,2017_May_28_1140,
,,0.23,"[-6.75, 0]",/sounds/legit/left100.wav,,,,,,,,,1,12,47,31,,,,,,,,,,,,,,,left,0.168164014816,participant7,23,59.9408923314,F,trial,2017_May_28_1140,
,,0.23,"[-6.75, 0]",/sounds/legit/left100.wav,,,,,,,,,1,13,48,31,,,,,,,,,,,,,,,left,0.41900396347,participant7,23,59.9408923314,F,trial,2017_May_28_1140,
,,0.36,"[-6.75, 0]",/sounds/legit/left100.wav,,,,,,,,,1,14,49,32,,,,,,,,,,,,,,,left,0.00152397155762,participant7,23,59.9408923314,F,trial,2017_May_28_1140,
,,0.36,"[-4.5, 0]",/sounds/legit/left70.wav,,,,,,,,,1,15,50,27,,,,,,,,,,,,,,,left,0.135038137436,participant7,23,59.9408923314,F,trial,2017_May_28_1140,
,,0.23,"[2.25, 0]",/sounds/legit/right35.wav,,,,,,,,,1,16,51,6,,,,,,,,,,,,,,,right,0.585731983185,participant7,23,59.9408923314,F,trial,2017_May_28_1140,
,,0.36,"[2.25, 0]",/sounds/legit/right35.wav,,,,,,,,,1,17,52,7,,,,,,,,,,,,,,,right,0.435664892197,participant7,23,59.9408923314,F,trial,2017_May_28_1140,
,,0.23,"[2.25, 0]",/sounds/legit/right35.wav,,,,,,,,,1,18,53,6,,,,,,,,,,,,,,,right,0.235104084015,participant7,23,59.9408923314,F,trial,2017_May_28_1140,
,,0.36,"[4.5, 0]",/sounds/legit/right70.wav,,,,,,,,,1,19,54,12,,,,,,,,,,,,,,,right,0.118499040604,participant7,23,59.9408923314,F,trial,2017_May_28_1140,
,,0.36,"[2.25, 0]",/sounds/legit/right35.wav,,,,,,,,,1,20,55,7,,,,,,,,,,,,,,,right,0.253302097321,participant7,23,59.9408923314,F,trial,2017_May_28_1140,
,,0.23,"[-4.5, 0]",/sounds/legit/left70.wav,,,,,,,,,1,21,56,26,,,,,,,,,,,,,,,left,0.0681440830231,participant7,23,59.9408923314,F,trial,2017_May_28_1140,
,,0.62,"[4.5, 0]",/sounds/legit/right70.wav,,,,,,,,,1,22,57,14,,,,,,,,,,,,,,,right,0.352110147476,participant7,23,59.9408923314,F,trial,2017_May_28_1140,
,,0.62,"[6.75, 0]",/sounds/legit/right100.wav,,,,,,,,,1,23,58,19,,,,,,,,,,,,,,,right,0.0178949832916,participant7,23,59.9408923314,F,trial,2017_May_28_1140,
,,0.1,"[6.75, 0]",/sounds/legit/right100.wav,,,,,,,,,1,24,59,15,,,,,,,,,,,,,,,right,0.66944694519,participant7,23,59.9408923314,F,trial,2017_May_28_1140,
,,0.1,"[2.25, 0]",/sounds/legit/right35.wav,,,,,,,,,1,25,60,5,,,,,,,,,,,,,,,right,0.251884937286,participant7,23,59.9408923314,F,trial,2017_May_28_1140,
,,0.62,"[2.25, 0]",/sounds/legit/right35.wav,,,,,,,,,1,26,61,9,,,,,,,,,,,,,,,right,0.0179769992828,participant7,23,59.9408923314,F,trial,2017_May_28_1140,
,,0.23,"[-4.5, 0]",/sounds/legit/left70.wav,,,,,,,,,1,27,62,26,,,,,,,,,,,,,,,left,0.719637870789,participant7,23,59.9408923314,F,trial,2017_May_28_1140,
,,0.1,"[-6.75, 0]",/sounds/legit/left100.wav,,,,,,,,,1,28,63,30,,,,,,,,,,,,,,,left,0.201914072037,participant7,23,59.9408923314,F,trial,2017_May_28_1140,
,,0.23,"[0, 0]",/sounds/legit/equal.wav,,,,,,,,,1,29,64,1,,,,,,,,,,,,,,,right,0.168458938599,participant7,23,59.9408923314,F,trial,2017_May_28_1140,
,,0.36,"[6.75, 0]",/sounds/legit/right100.wav,,,,,,,,,1,30,65,17,,,,,,,,,,,,,,,right,0.0681481361389,participant7,23,59.9408923314,F,trial,2017_May_28_1140,
,,0.49,"[-4.5, 0]",/sounds/legit/left70.wav,,,,,,,,,1,31,66,28,,,,,,,,,,,,,,,left,0.285429954529,participant7,23,59.9408923314,F,trial,2017_May_28_1140,
,,0.23,"[-2.25, 0]",/sounds/legit/left35.wav,,,,,,,,,1,32,67,21,,,,,,,,,,,,,,,left,0.0682308673859,participant7,23,59.9408923314,F,trial,2017_May_28_1140,
,,0.36,"[-4.5, 0]",/sounds/legit/left70.wav,,,,,,,,,1,33,68,27,,,,,,,,,,,,,,,left,0.184854984283,participant7,23,59.9408923314,F,trial,2017_May_28_1140,
,,0.49,"[-6.75, 0]",/sounds/legit/left100.wav,,,,,,,,,1,34,69,33,,,,,,,,,,,,,,,left,0.0514521598816,participant7,23,59.9408923314,F,trial,2017_May_28_1140,
,,0.49,"[4.5, 0]",/sounds/legit/right70.wav,,,,,,,,,2,0,70,13,,,,,,,,,,,,,,,right,0.0681509971619,participant7,23,59.9408923314,F,trial,2017_May_28_1140,
,,0.62,"[-2.25, 0]",/sounds/legit/left35.wav,,,,,,,,,2,1,71,24,,,,,,,,,,,,,,,left,0.0512609481812,participant7,23,59.9408923314,F,trial,2017_May_28_1140,
,,0.36,"[0, 0]",/sounds/legit/equal.wav,,,,,,,,,2,2,72,2,,,,,,,,,,,,,,,right,0.319020032883,participant7,23,59.9408923314,F,trial,2017_May_28_1140,
,,0.62,"[0, 0]",/sounds/legit/equal.wav,,,,,,,,,2,3,73,4,,,,,,,,,,,,,,,right,0.0345339775085,participant7,23,59.9408923314,F,trial,2017_May_28_1140,
,,0.1,"[-4.5, 0]",/sounds/legit/left70.wav,,,,,,,,,2,4,74,25,,,,,,,,,,,,,,,left,0.685968875885,participant7,23,59.9408923314,F,trial,2017_May_28_1140,
,,0.62,"[-4.5, 0]",/sounds/legit/left70.wav,,,,,,,,,2,5,75,29,,,,,,,,,,,,,,,left,0.0513639450073,participant7,23,59.9408923314,F,trial,2017_May_28_1140,
,,0.62,"[0, 0]",/sounds/legit/equal.wav,,,,,,,,,2,6,76,4,,,,,,,,,,,,,,,left,0.13486790657,participant7,23,59.9408923314,F,trial,2017_May_28_1140,
,,0.36,"[6.75, 0]",/sounds/legit/right100.wav,,,,,,,,,2,7,77,17,,,,,,,,,,,,,,,right,0.318650007248,participant7,23,59.9408923314,F,trial,2017_May_28_1140,
,,0.49,"[-4.5, 0]",/sounds/legit/left70.wav,,,,,,,,,2,8,78,28,,,,,,,,,,,,,,,left,0.0177848339081,participant7,23,59.9408923314,F,trial,2017_May_28_1140,
,,0.62,"[0, 0]",/sounds/legit/equal.wav,,,,,,,,,2,9,79,4,,,,,,,,,,,,,,,left,0.0849480628967,participant7,23,59.9408923314,F,trial,2017_May_28_1140,
,,0.1,"[-4.5, 0]",/sounds/legit/left70.wav,,,,,,,,,2,10,80,25,,,,,,,,,,,,,,,left,0.686217069626,participant7,23,59.9408923314,F,trial,2017_May_28_1140,
,,0.23,"[-2.25, 0]",/sounds/legit/left35.wav,,,,,,,,,2,11,81,21,,,,,,,,,,,,,,,left,0.0686421394348,participant7,23,59.9408923314,F,trial,2017_May_28_1140,
,,0.62,"[-4.5, 0]",/sounds/legit/left70.wav,,,,,,,,,2,12,82,29,,,,,,,,,,,,,,,left,0.519337892532,participant7,23,59.9408923314,F,trial,2017_May_28_1140,
,,0.62,"[-2.25, 0]",/sounds/legit/left35.wav,,,,,,,,,2,13,83,24,,,,,,,,,,,,,,,left,0.986925125122,participant7,23,59.9408923314,F,trial,2017_May_28_1140,
,,0.62,"[-4.5, 0]",/sounds/legit/left70.wav,,,,,,,,,2,14,84,29,,,,,,,,,,,,,,,left,0.0178968906403,participant7,23,59.9408923314,F,trial,2017_May_28_1140,
,,0.23,"[-2.25, 0]",/sounds/legit/left35.wav,,,,,,,,,2,15,85,21,,,,,,,,,,,,,,,left,0.0180017948151,participant7,23,59.9408923314,F,trial,2017_May_28_1140,
,,0.62,"[-4.5, 0]",/sounds/legit/left70.wav,,,,,,,,,2,16,86,29,,,,,,,,,,,,,,,left,0.552547931671,participant7,23,59.9408923314,F,trial,2017_May_28_1140,
,,0.23,"[-4.5, 0]",/sounds/legit/left70.wav,,,,,,,,,2,17,87,26,,,,,,,,,,,,,,,left,0.0178961753845,participant7,23,59.9408923314,F,trial,2017_May_28_1140,
,,0.49,"[-6.75, 0]",/sounds/legit/left100.wav,,,,,,,,,2,18,88,33,,,,,,,,,,,,,,,left,0.0347788333893,participant7,23,59.9408923314,F,trial,2017_May_28_1140,
,,0.1,"[4.5, 0]",/sounds/legit/right70.wav,,,,,,,,,2,19,89,10,,,,,,,,,,,,,,,right,0.151921987534,participant7,23,59.9408923314,F,trial,2017_May_28_1140,
,,0.49,"[4.5, 0]",/sounds/legit/right70.wav,,,,,,,,,2,20,90,13,,,,,,,,,,,,,,,right,0.903076171875,participant7,23,59.9408923314,F,trial,2017_May_28_1140,
,,0.49,"[-4.5, 0]",/sounds/legit/left70.wav,,,,,,,,,2,21,91,28,,,,,,,,,,,,,,,left,0.285341978073,participant7,23,59.9408923314,F,trial,2017_May_28_1140,
,,0.49,"[0, 0]",/sounds/legit/equal.wav,,,,,,,,,2,22,92,3,,,,,,,,,,,,,,,right,0.535774946213,participant7,23,59.9408923314,F,trial,2017_May_28_1140,
,,0.1,"[-4.5, 0]",/sounds/legit/left70.wav,,,,,,,,,2,23,93,25,,,,,,,,,,,,,,,left,0.00128889083862,participant7,23,59.9408923314,F,trial,2017_May_28_1140,
,,0.1,"[-6.75, 0]",/sounds/legit/left100.wav,,,,,,,,,2,24,94,30,,,,,,,,,,,,,,,left,0.468716144562,participant7,23,59.9408923314,F,trial,2017_May_28_1140,
,,0.23,"[-4.5, 0]",/sounds/legit/left70.wav,,,,,,,,,2,25,95,26,,,,,,,,,,,,,,,left,0.435581207275,participant7,23,59.9408923314,F,trial,2017_May_28_1140,
,,0.23,"[2.25, 0]",/sounds/legit/right35.wav,,,,,,,,,2,26,96,6,,,,,,,,,,,,,,,right,0.118182897568,participant7,23,59.9408923314,F,trial,2017_May_28_1140,
,,0.62,"[0, 0]",/sounds/legit/equal.wav,,,,,,,,,2,27,97,4,,,,,,,,,,,,,,,right,0.0838820934296,participant7,23,59.9408923314,F,trial,2017_May_28_1140,
,,0.62,"[0, 0]",/sounds/legit/equal.wav,,,,,,,,,2,28,98,4,,,,,,,,,,,,,,,right,0.352160930634,participant7,23,59.9408923314,F,trial,2017_May_28_1140,
,,0.1,"[4.5, 0]",/sounds/legit/right70.wav,,,,,,,,,2,29,99,10,,,,,,,,,,,,,,,right,0.669460058212,participant7,23,59.9408923314,F,trial,2017_May_28_1140,
,,0.49,"[0, 0]",/sounds/legit/equal.wav,,,,,,,,,2,30,100,3,,,,,,,,,,,,,,,right,0.135037899017,participant7,23,59.9408923314,F,trial,2017_May_28_1140,
,,0.62,"[2.25, 0]",/sounds/legit/right35.wav,,,,,,,,,2,31,101,9,,,,,,,,,,,,,,,right,0.585736036301,participant7,23,59.9408923314,F,trial,2017_May_28_1140,
,,0.49,"[4.5, 0]",/sounds/legit/right70.wav,,,,,,,,,2,32,102,13,,,,,,,,,,,,,,,right,0.569436073303,participant7,23,59.9408923314,F,trial,2017_May_28_1140,
,,0.1,"[4.5, 0]",/sounds/legit/right70.wav,,,,,,,,,2,33,103,10,,,,,,,,,,,,,,,right,0.418850898743,participant7,23,59.9408923314,F,trial,2017_May_28_1140,
,,0.23,"[6.75, 0]",/sounds/legit/right100.wav,,,,,,,,,2,34,104,16,,,,,,,,,,,,,,,right,0.452427864075,participant7,23,59.9408923314,F,trial,2017_May_28_1140,
,,0.49,"[-2.25, 0]",/sounds/legit/left35.wav,,,,,,,,,3,0,105,23,,,,,,,,,,,,,,,left,0.168366909027,participant7,23,59.9408923314,F,trial,2017_May_28_1140,
,,0.49,"[0, 0]",/sounds/legit/equal.wav,,,,,,,,,3,1,106,3,,,,,,,,,,,,,,,right,0.0172131061554,participant7,23,59.9408923314,F,trial,2017_May_28_1140,
,,0.49,"[0, 0]",/sounds/legit/equal.wav,,,,,,,,,3,2,107,3,,,,,,,,,,,,,,,right,0.385436058044,participant7,23,59.9408923314,F,trial,2017_May_28_1140,
,,0.23,"[2.25, 0]",/sounds/legit/right35.wav,,,,,,,,,3,3,108,6,,,,,,,,,,,,,,,right,0.41893696785,participant7,23,59.9408923314,F,trial,2017_May_28_1140,
,,0.23,"[6.75, 0]",/sounds/legit/right100.wav,,,,,,,,,3,4,109,16,,,,,,,,,,,,,,,right,0.636030197144,participant7,23,59.9408923314,F,trial,2017_May_28_1140,
,,0.1,"[-4.5, 0]",/sounds/legit/left70.wav,,,,,,,,,3,5,110,25,,,,,,,,,,,,,,,left,0.00134611129761,participant7,23,59.9408923314,F,trial,2017_May_28_1140,
,,0.49,"[-6.75, 0]",/sounds/legit/left100.wav,,,,,,,,,3,6,111,33,,,,,,,,,,,,,,,left,0.0348429679871,participant7,23,59.9408923314,F,trial,2017_May_28_1140,
,,0.36,"[6.75, 0]",/sounds/legit/right100.wav,,,,,,,,,3,7,112,17,,,,,,,,,,,,,,,right,0.586009025574,participant7,23,59.9408923314,F,trial,2017_May_28_1140,
,,0.62,"[4.5, 0]",/sounds/legit/right70.wav,,,,,,,,,3,8,113,14,,,,,,,,,,,,,,,right,0.0348989963531,participant7,23,59.9408923314,F,trial,2017_May_28_1140,
,,0.36,"[0, 0]",/sounds/legit/equal.wav,,,,,,,,,3,9,114,2,,,,,,,,,,,,,,,right,2.50445890427,participant7,23,59.9408923314,F,trial,2017_May_28_1140,
,,0.62,"[0, 0]",/sounds/legit/equal.wav,,,,,,,,,3,10,115,4,,,,,,,,,,,,,,,right,0.769675970078,participant7,23,59.9408923314,F,trial,2017_May_28_1140,
,,0.23,"[-6.75, 0]",/sounds/legit/left100.wav,,,,,,,,,3,11,116,31,,,,,,,,,,,,,,,left,0.786171913147,participant7,23,59.9408923314,F,trial,2017_May_28_1140,
,,0.49,"[-6.75, 0]",/sounds/legit/left100.wav,,,,,,,,,3,12,117,33,,,,,,,,,,,,,,,left,0.552514076233,participant7,23,59.9408923314,F,trial,2017_May_28_1140,
,,0.49,"[-4.5, 0]",/sounds/legit/left70.wav,,,,,,,,,3,13,118,28,,,,,,,,,,,,,,,left,0.0684990882874,participant7,23,59.9408923314,F,trial,2017_May_28_1140,
,,0.1,"[4.5, 0]",/sounds/legit/right70.wav,,,,,,,,,3,14,119,10,,,,,,,,,,,,,,,right,0.669460058212,participant7,23,59.9408923314,F,trial,2017_May_28_1140,
,,0.36,"[0, 0]",/sounds/legit/equal.wav,,,,,,,,,3,15,120,2,,,,,,,,,,,,,,,right,0.101588964462,participant7,23,59.9408923314,F,trial,2017_May_28_1140,
,,0.62,"[-6.75, 0]",/sounds/legit/left100.wav,,,,,,,,,3,16,121,34,,,,,,,,,,,,,,,left,0.135180950165,participant7,23,59.9408923314,F,trial,2017_May_28_1140,
,,0.49,"[0, 0]",/sounds/legit/equal.wav,,,,,,,,,3,17,122,3,,,,,,,,,,,,,,,left,0.185064792633,participant7,23,59.9408923314,F,trial,2017_May_28_1140,
,,0.62,"[-6.75, 0]",/sounds/legit/left100.wav,,,,,,,,,3,18,123,34,,,,,,,,,,,,,,,left,0.0179049968719,participant7,23,59.9408923314,F,trial,2017_May_28_1140,
,,0.23,"[6.75, 0]",/sounds/legit/right100.wav,,,,,,,,,3,19,124,16,,,,,,,,,,,,,,,right,0.0178370475769,participant7,23,59.9408923314,F,trial,2017_May_28_1140,
,,0.49,"[-2.25, 0]",/sounds/legit/left35.wav,,,,,,,,,3,20,125,23,,,,,,,,,,,,,,,left,0.836694002151,participant7,23,59.9408923314,F,trial,2017_May_28_1140,
,,0.36,"[0, 0]",/sounds/legit/equal.wav,,,,,,,,,3,21,126,2,,,,,,,,,,,,,,,right,0.00142693519592,participant7,23,59.9408923314,F,trial,2017_May_28_1140,
,,0.49,"[-2.25, 0]",/sounds/legit/left35.wav,,,,,,,,,3,22,127,23,,,,,,,,,,,,,,,left,0.201528787613,participant7,23,59.9408923314,F,trial,2017_May_28_1140,
,,0.49,"[0, 0]",/sounds/legit/equal.wav,,,,,,,,,3,23,128,3,,,,,,,,,,,,,,,right,0.585953950882,participant7,23,59.9408923314,F,trial,2017_May_28_1140,
,,0.49,"[-4.5, 0]",/sounds/legit/left70.wav,,,,,,,,,3,24,129,28,,,,,,,,,,,,,,,left,0.00134301185608,participant7,23,59.9408923314,F,trial,2017_May_28_1140,
,,0.23,"[6.75, 0]",/sounds/legit/right100.wav,,,,,,,,,3,25,130,16,,,,,,,,,,,,,,,right,0.569619894028,participant7,23,59.9408923314,F,trial,2017_May_28_1140,
,,0.23,"[-6.75, 0]",/sounds/legit/left100.wav,,,,,,,,,3,26,131,31,,,,,,,,,,,,,,,left,0.718741893768,participant7,23,59.9408923314,F,trial,2017_May_28_1140,
,,0.23,"[6.75, 0]",/sounds/legit/right100.wav,,,,,,,,,3,27,132,16,,,,,,,,,,,,,,,right,0.719371795654,participant7,23,59.9408923314,F,trial,2017_May_28_1140,
,,0.49,"[2.25, 0]",/sounds/legit/right35.wav,,,,,,,,,3,28,133,8,,,,,,,,,,,,,,,right,0.502676010132,participant7,23,59.9408923314,F,trial,2017_May_28_1140,
,,0.36,"[6.75, 0]",/sounds/legit/right100.wav,,,,,,,,,3,29,134,17,,,,,,,,,,,,,,,right,0.368628025055,participant7,23,59.9408923314,F,trial,2017_May_28_1140,
,,0.1,"[-6.75, 0]",/sounds/legit/left100.wav,,,,,,,,,3,30,135,30,,,,,,,,,,,,,,,left,0.00131106376648,participant7,23,59.9408923314,F,trial,2017_May_28_1140,
,,0.49,"[4.5, 0]",/sounds/legit/right70.wav,,,,,,,,,3,31,136,13,,,,,,,,,,,,,,,right,0.368919849396,participant7,23,59.9408923314,F,trial,2017_May_28_1140,
,,0.62,"[-2.25, 0]",/sounds/legit/left35.wav,,,,,,,,,3,32,137,24,,,,,,,,,,,,,,,left,0.619346141815,participant7,23,59.9408923314,F,trial,2017_May_28_1140,
,,0.62,"[-6.75, 0]",/sounds/legit/left100.wav,,,,,,,,,3,33,138,34,,,,,,,,,,,,,,,left,0.0681200027466,participant7,23,59.9408923314,F,trial,2017_May_28_1140,
,,0.1,"[-6.75, 0]",/sounds/legit/left100.wav,,,,,,,,,3,34,139,30,,,,,,,,,,,,,,,left,0.268852949142,participant7,23,59.9408923314,F,trial,2017_May_28_1140,
,,0.36,"[-2.25, 0]",/sounds/legit/left35.wav,,,,,,,,,4,0,140,22,,,,,,,,,,,,,,,left,0.869927883148,participant7,23,59.9408923314,F,trial,2017_May_28_1140,
,,0.23,"[-6.75, 0]",/sounds/legit/left100.wav,,,,,,,,,4,1,141,31,,,,,,,,,,,,,,,left,0.00140786170959,participant7,23,59.9408923314,F,trial,2017_May_28_1140,
,,0.49,"[2.25, 0]",/sounds/legit/right35.wav,,,,,,,,,4,2,142,8,,,,,,,,,,,,,,,right,0.00257611274719,participant7,23,59.9408923314,F,trial,2017_May_28_1140,
,,0.62,"[-4.5, 0]",/sounds/legit/left70.wav,,,,,,,,,4,3,143,29,,,,,,,,,,,,,,,left,0.0513479709625,participant7,23,59.9408923314,F,trial,2017_May_28_1140,
,,0.1,"[-4.5, 0]",/sounds/legit/left70.wav,,,,,,,,,4,4,144,25,,,,,,,,,,,,,,,left,0.0849599838257,participant7,23,59.9408923314,F,trial,2017_May_28_1140,
,,0.36,"[-4.5, 0]",/sounds/legit/left70.wav,,,,,,,,,4,5,145,27,,,,,,,,,,,,,,,left,0.435523986816,participant7,23,59.9408923314,F,trial,2017_May_28_1140,
,,0.36,"[0, 0]",/sounds/legit/equal.wav,,,,,,,,,4,6,146,2,,,,,,,,,,,,,,,right,0.0849788188934,participant7,23,59.9408923314,F,trial,2017_May_28_1140,
,,0.23,"[0, 0]",/sounds/legit/equal.wav,,,,,,,,,4,7,147,1,,,,,,,,,,,,,,,right,0.00167798995972,participant7,23,59.9408923314,F,trial,2017_May_28_1140,
,,0.36,"[-4.5, 0]",/sounds/legit/left70.wav,,,,,,,,,4,8,148,27,,,,,,,,,,,,,,,left,0.435577869415,participant7,23,59.9408923314,F,trial,2017_May_28_1140,
,,0.1,"[2.25, 0]",/sounds/legit/right35.wav,,,,,,,,,4,9,149,5,,,,,,,,,,,,,,,right,0.552318096161,participant7,23,59.9408923314,F,trial,2017_May_28_1140,
,,0.36,"[2.25, 0]",/sounds/legit/right35.wav,,,,,,,,,4,10,150,7,,,,,,,,,,,,,,,right,0.485738992691,participant7,23,59.9408923314,F,trial,2017_May_28_1140,
,,0.23,"[0, 0]",/sounds/legit/equal.wav,,,,,,,,,4,11,151,1,,,,,,,,,,,,,,,right,0.602489948273,participant7,23,59.9408923314,F,trial,2017_May_28_1140,
,,0.62,"[2.25, 0]",/sounds/legit/right35.wav,,,,,,,,,4,12,152,9,,,,,,,,,,,,,,,right,0.485514879227,participant7,23,59.9408923314,F,trial,2017_May_28_1140,
,,0.49,"[2.25, 0]",/sounds/legit/right35.wav,,,,,,,,,4,13,153,8,,,,,,,,,,,,,,,right,0.452311038971,participant7,23,59.9408923314,F,trial,2017_May_28_1140,
,,0.36,"[2.25, 0]",/sounds/legit/right35.wav,,,,,,,,,4,14,154,7,,,,,,,,,,,,,,,right,0.535831928253,participant7,23,59.9408923314,F,trial,2017_May_28_1140,
,,0.1,"[0, 0]",/sounds/legit/equal.wav,,,,,,,,,4,15,155,0,,,,,,,,,,,,,,,right,0.41908788681,participant7,23,59.9408923314,F,trial,2017_May_28_1140,
,,0.36,"[-4.5, 0]",/sounds/legit/left70.wav,,,,,,,,,4,16,156,27,,,,,,,,,,,,,,,left,0.051656961441,participant7,23,59.9408923314,F,trial,2017_May_28_1140,
,,0.36,"[4.5, 0]",/sounds/legit/right70.wav,,,,,,,,,4,17,157,12,,,,,,,,,,,,,,,right,0.469240903854,participant7,23,59.9408923314,F,trial,2017_May_28_1140,
,,0.23,"[4.5, 0]",/sounds/legit/right70.wav,,,,,,,,,4,18,158,11,,,,,,,,,,,,,,,right,0.936720132828,participant7,23,59.9408923314,F,trial,2017_May_28_1140,
,,0.49,"[-2.25, 0]",/sounds/legit/left35.wav,,,,,,,,,4,19,159,23,,,,,,,,,,,,,,,left,0.0178141593933,participant7,23,59.9408923314,F,trial,2017_May_28_1140,
,,0.49,"[4.5, 0]",/sounds/legit/right70.wav,,,,,,,,,4,20,160,13,,,,,,,,,,,,,,,right,0.0680799484253,participant7,23,59.9408923314,F,trial,2017_May_28_1140,
,,0.36,"[-2.25, 0]",/sounds/legit/left35.wav,,,,,,,,,4,21,161,22,,,,,,,,,,,,,,,left,0.0347421169281,participant7,23,59.9408923314,F,trial,2017_May_28_1140,
,,0.49,"[-6.75, 0]",/sounds/legit/left100.wav,,,,,,,,,4,22,162,33,,,,,,,,,,,,,,,left,0.134772062302,participant7,23,59.9408923314,F,trial,2017_May_28_1140,
,,0.1,"[-6.75, 0]",/sounds/legit/left100.wav,,,,,,,,,4,23,163,30,,,,,,,,,,,,,,,left,0.0346150398254,participant7,23,59.9408923314,F,trial,2017_May_28_1140,
,,0.1,"[-4.5, 0]",/sounds/legit/left70.wav,,,,,,,,,4,24,164,25,,,,,,,,,,,,,,,left,0.0180830955505,participant7,23,59.9408923314,F,trial,2017_May_28_1140,
,,0.23,"[0, 0]",/sounds/legit/equal.wav,,,,,,,,,4,25,165,1,,,,,,,,,,,,,,,right,0.318822860718,participant7,23,59.9408923314,F,trial,2017_May_28_1140,
,,0.36,"[2.25, 0]",/sounds/legit/right35.wav,,,,,,,,,4,26,166,7,,,,,,,,,,,,,,,right,0.00125098228455,participant7,23,59.9408923314,F,trial,2017_May_28_1140,
,,0.1,"[-4.5, 0]",/sounds/legit/left70.wav,,,,,,,,,4,27,167,25,,,,,,,,,,,,,,,left,0.0513598918915,participant7,23,59.9408923314,F,trial,2017_May_28_1140,
,,0.1,"[6.75, 0]",/sounds/legit/right100.wav,,,,,,,,,4,28,168,15,,,,,,,,,,,,,,,right,0.80304813385,participant7,23,59.9408923314,F,trial,2017_May_28_1140,
,,0.1,"[-2.25, 0]",/sounds/legit/left35.wav,,,,,,,,,4,29,169,20,,,,,,,,,,,,,,,left,0.468995094299,participant7,23,59.9408923314,F,trial,2017_May_28_1140,
,,0.36,"[2.25, 0]",/sounds/legit/right35.wav,,,,,,,,,4,30,170,7,,,,,,,,,,,,,,,right,0.602748155594,participant7,23,59.9408923314,F,trial,2017_May_28_1140,
,,0.62,"[-2.25, 0]",/sounds/legit/left35.wav,,,,,,,,,4,31,171,24,,,,,,,,,,,,,,,right,1.10363101959,participant7,23,59.9408923314,F,trial,2017_May_28_1140,
,,0.23,"[6.75, 0]",/sounds/legit/right100.wav,,,,,,,,,4,32,172,16,,,,,,,,,,,,,,,right,0.535850048065,participant7,23,59.9408923314,F,trial,2017_May_28_1140,
,,0.1,"[-4.5, 0]",/sounds/legit/left70.wav,,,,,,,,,4,33,173,25,,,,,,,,,,,,,,,left,0.635864973068,participant7,23,59.9408923314,F,trial,2017_May_28_1140,
,,0.49,"[6.75, 0]",/sounds/legit/right100.wav,,,,,,,,,4,34,174,18,,,,,,,,,,,,,,,right,0.636005878448,participant7,23,59.9408923314,F,trial,2017_May_28_1140,
,,0.23,"[4.5, 0]",/sounds/legit/right70.wav,,,,,,,,,5,0,175,11,,,,,,,,,,,,,,,right,0.301903009415,participant7,23,59.9408923314,F,trial,2017_May_28_1140,
,,0.36,"[-6.75, 0]",/sounds/legit/left100.wav,,,,,,,,,5,1,176,32,,,,,,,,,,,,,,,left,0.385561943054,participant7,23,59.9408923314,F,trial,2017_May_28_1140,
,,0.1,"[6.75, 0]",/sounds/legit/right100.wav,,,,,,,,,5,2,177,15,,,,,,,,,,,,,,,right,0.185248851776,participant7,23,59.9408923314,F,trial,2017_May_28_1140,
,,0.36,"[-6.75, 0]",/sounds/legit/left100.wav,,,,,,,,,5,3,178,32,,,,,,,,,,,,,,,left,0.636070966721,participant7,23,59.9408923314,F,trial,2017_May_28_1140,
,,0.23,"[0, 0]",/sounds/legit/equal.wav,,,,,,,,,5,4,179,1,,,,,,,,,,,,,,,right,0.218579053879,participant7,23,59.9408923314,F,trial,2017_May_28_1140,
,,0.36,"[-2.25, 0]",/sounds/legit/left35.wav,,,,,,,,,5,5,180,22,,,,,,,,,,,,,,,left,0.0179028511047,participant7,23,59.9408923314,F,trial,2017_May_28_1140,
,,0.1,"[0, 0]",/sounds/legit/equal.wav,,,,,,,,,5,6,181,0,,,,,,,,,,,,,,,right,0.134985923767,participant7,23,59.9408923314,F,trial,2017_May_28_1140,
,,0.23,"[-2.25, 0]",/sounds/legit/left35.wav,,,,,,,,,5,7,182,21,,,,,,,,,,,,,,,right,0.40229511261,participant7,23,59.9408923314,F,trial,2017_May_28_1140,
,,0.62,"[-4.5, 0]",/sounds/legit/left70.wav,,,,,,,,,5,8,183,29,,,,,,,,,,,,,,,left,0.118200063705,participant7,23,59.9408923314,F,trial,2017_May_28_1140,
,,0.36,"[-2.25, 0]",/sounds/legit/left35.wav,,,,,,,,,5,9,184,22,,,,,,,,,,,,,,,left,0.0346441268921,participant7,23,59.9408923314,F,trial,2017_May_28_1140,
,,0.62,"[-6.75, 0]",/sounds/legit/left100.wav,,,,,,,,,5,10,185,34,,,,,,,,,,,,,,,left,0.0847990512848,participant7,23,59.9408923314,F,trial,2017_May_28_1140,
,,0.49,"[4.5, 0]",/sounds/legit/right70.wav,,,,,,,,,5,11,186,13,,,,,,,,,,,,,,,right,0.602432966232,participant7,23,59.9408923314,F,trial,2017_May_28_1140,
,,0.62,"[2.25, 0]",/sounds/legit/right35.wav,,,,,,,,,5,12,187,9,,,,,,,,,,,,,,,right,0.0012948513031,participant7,23,59.9408923314,F,trial,2017_May_28_1140,
,,0.49,"[0, 0]",/sounds/legit/equal.wav,,,,,,,,,5,13,188,3,,,,,,,,,,,,,,,right,0.0683591365814,participant7,23,59.9408923314,F,trial,2017_May_28_1140,
,,0.49,"[-6.75, 0]",/sounds/legit/left100.wav,,,,,,,,,5,14,189,33,,,,,,,,,,,,,,,left,0.786643981934,participant7,23,59.9408923314,F,trial,2017_May_28_1140,
,,0.62,"[-2.25, 0]",/sounds/legit/left35.wav,,,,,,,,,5,15,190,24,,,,,,,,,,,,,,,left,0.218777894974,participant7,23,59.9408923314,F,trial,2017_May_28_1140,
,,0.36,"[0, 0]",/sounds/legit/equal.wav,,,,,,,,,5,16,191,2,,,,,,,,,,,,,,,right,0.135010957718,participant7,23,59.9408923314,F,trial,2017_May_28_1140,
,,0.1,"[-2.25, 0]",/sounds/legit/left35.wav,,,,,,,,,5,17,192,20,,,,,,,,,,,,,,,left,0.752933979034,participant7,23,59.9408923314,F,trial,2017_May_28_1140,
,,0.1,"[0, 0]",/sounds/legit/equal.wav,,,,,,,,,5,18,193,0,,,,,,,,,,,,,,,right,0.452476024628,participant7,23,59.9408923314,F,trial,2017_May_28_1140,
,,0.23,"[2.25, 0]",/sounds/legit/right35.wav,,,,,,,,,5,19,194,6,,,,,,,,,,,,,,,right,0.234972953796,participant7,23,59.9408923314,F,trial,2017_May_28_1140,
,,0.62,"[-2.25, 0]",/sounds/legit/left35.wav,,,,,,,,,5,20,195,24,,,,,,,,,,,,,,,left,0.0348401069641,participant7,23,59.9408923314,F,trial,2017_May_28_1140,
,,0.23,"[0, 0]",/sounds/legit/equal.wav,,,,,,,,,5,21,196,1,,,,,,,,,,,,,,,right,0.301875114441,participant7,23,59.9408923314,F,trial,2017_May_28_1140,
,,0.36,"[-6.75, 0]",/sounds/legit/left100.wav,,,,,,,,,5,22,197,32,,,,,,,,,,,,,,,left,0.00125098228455,participant7,23,59.9408923314,F,trial,2017_May_28_1140,
,,0.1,"[6.75, 0]",/sounds/legit/right100.wav,,,,,,,,,5,23,198,15,,,,,,,,,,,,,,,right,0.302061080933,participant7,23,59.9408923314,F,trial,2017_May_28_1140,
,,0.49,"[-2.25, 0]",/sounds/legit/left35.wav,,,,,,,,,5,24,199,23,,,,,,,,,,,,,,,left,0.737437963486,participant7,23,59.9408923314,F,trial,2017_May_28_1140,
,,0.1,"[6.75, 0]",/sounds/legit/right100.wav,,,,,,,,,5,25,200,15,,,,,,,,,,,,,,,right,0.318578958511,participant7,23,59.9408923314,F,trial,2017_May_28_1140,
,,0.36,"[-4.5, 0]",/sounds/legit/left70.wav,,,,,,,,,5,26,201,27,,,,,,,,,,,,,,,left,0.251551866531,participant7,23,59.9408923314,F,trial,2017_May_28_1140,
,,0.62,"[2.25, 0]",/sounds/legit/right35.wav,,,,,,,,,5,27,202,9,,,,,,,,,,,,,,,right,0.0178580284119,participant7,23,59.9408923314,F,trial,2017_May_28_1140,
,,0.1,"[-6.75, 0]",/sounds/legit/left100.wav,,,,,,,,,5,28,203,30,,,,,,,,,,,,,,,left,0.201833963394,participant7,23,59.9408923314,F,trial,2017_May_28_1140,
,,0.49,"[6.75, 0]",/sounds/legit/right100.wav,,,,,,,,,5,29,204,18,,,,,,,,,,,,,,,right,0.751937150955,participant7,23,59.9408923314,F,trial,2017_May_28_1140,
,,0.49,"[-6.75, 0]",/sounds/legit/left100.wav,,,,,,,,,5,30,205,33,,,,,,,,,,,,,,,left,0.686196088791,participant7,23,59.9408923314,F,trial,2017_May_28_1140,
,,0.36,"[-2.25, 0]",/sounds/legit/left35.wav,,,,,,,,,5,31,206,22,,,,,,,,,,,,,,,left,0.535929203033,participant7,23,59.9408923314,F,trial,2017_May_28_1140,
,,0.1,"[4.5, 0]",/sounds/legit/right70.wav,,,,,,,,,5,32,207,10,,,,,,,,,,,,,,,right,0.686207771301,participant7,23,59.9408923314,F,trial,2017_May_28_1140,
,,0.23,"[-4.5, 0]",/sounds/legit/left70.wav,,,,,,,,,5,33,208,26,,,,,,,,,,,,,,,left,0.736266851425,participant7,23,59.9408923314,F,trial,2017_May_28_1140,
,,0.1,"[-2.25, 0]",/sounds/legit/left35.wav,,,,,,,,,5,34,209,20,,,,,,,,,,,,,,,left,0.368406057358,participant7,23,59.9408923314,F,trial,2017_May_28_1140,
,,0.36,"[-2.25, 0]",/sounds/legit/left35.wav,,,,,,,,,6,0,210,22,,,,,,,,,,,,,,,left,1.2373790741,participant7,23,59.9408923314,F,trial,2017_May_28_1140,
,,0.49,"[6.75, 0]",/sounds/legit/right100.wav,,,,,,,,,6,1,211,18,,,,,,,,,,,,,,,right,0.0680220127106,participant7,23,59.9408923314,F,trial,2017_May_28_1140,
,,0.1,"[6.75, 0]",/sounds/legit/right100.wav,,,,,,,,,6,2,212,15,,,,,,,,,,,,,,,right,0.368762969971,participant7,23,59.9408923314,F,trial,2017_May_28_1140,
,,0.1,"[2.25, 0]",/sounds/legit/right35.wav,,,,,,,,,6,3,213,5,,,,,,,,,,,,,,,right,0.0345180034637,participant7,23,59.9408923314,F,trial,2017_May_28_1140,
,,0.49,"[-2.25, 0]",/sounds/legit/left35.wav,,,,,,,,,6,4,214,23,,,,,,,,,,,,,,,left,0.134819030762,participant7,23,59.9408923314,F,trial,2017_May_28_1140,
,,0.62,"[4.5, 0]",/sounds/legit/right70.wav,,,,,,,,,6,5,215,14,,,,,,,,,,,,,,,right,0.953231096268,participant7,23,59.9408923314,F,trial,2017_May_28_1140,
,,0.36,"[4.5, 0]",/sounds/legit/right70.wav,,,,,,,,,6,6,216,12,,,,,,,,,,,,,,,right,0.0349659919739,participant7,23,59.9408923314,F,trial,2017_May_28_1140,
,,0.23,"[4.5, 0]",/sounds/legit/right70.wav,,,,,,,,,6,7,217,11,,,,,,,,,,,,,,,right,0.702666044235,participant7,23,59.9408923314,F,trial,2017_May_28_1140,
,,0.36,"[-4.5, 0]",/sounds/legit/left70.wav,,,,,,,,,6,8,218,27,,,,,,,,,,,,,,,left,0.118271827698,participant7,23,59.9408923314,F,trial,2017_May_28_1140,
,,0.62,"[-6.75, 0]",/sounds/legit/left100.wav,,,,,,,,,6,9,219,34,,,,,,,,,,,,,,,left,0.318912982941,participant7,23,59.9408923314,F,trial,2017_May_28_1140,
,,0.1,"[6.75, 0]",/sounds/legit/right100.wav,,,,,,,,,6,10,220,15,,,,,,,,,,,,,,,right,0.753030061722,participant7,23,59.9408923314,F,trial,2017_May_28_1140,
,,0.23,"[-2.25, 0]",/sounds/legit/left35.wav,,,,,,,,,6,11,221,21,,,,,,,,,,,,,,,left,0.752020120621,participant7,23,59.9408923314,F,trial,2017_May_28_1140,
,,0.1,"[6.75, 0]",/sounds/legit/right100.wav,,,,,,,,,6,12,222,15,,,,,,,,,,,,,,,right,0.33564209938,participant7,23,59.9408923314,F,trial,2017_May_28_1140,
,,0.36,"[2.25, 0]",/sounds/legit/right35.wav,,,,,,,,,6,13,223,7,,,,,,,,,,,,,,,right,0.452445983887,participant7,23,59.9408923314,F,trial,2017_May_28_1140,
,,0.23,"[4.5, 0]",/sounds/legit/right70.wav,,,,,,,,,6,14,224,11,,,,,,,,,,,,,,,right,0.268667936325,participant7,23,59.9408923314,F,trial,2017_May_28_1140,
,,0.23,"[0, 0]",/sounds/legit/equal.wav,,,,,,,,,6,15,225,1,,,,,,,,,,,,,,,right,0.0682189464569,participant7,23,59.9408923314,F,trial,2017_May_28_1140,
,,0.62,"[6.75, 0]",/sounds/legit/right100.wav,,,,,,,,,6,16,226,19,,,,,,,,,,,,,,,right,0.285315990448,participant7,23,59.9408923314,F,trial,2017_May_28_1140,
