path,name,noise,location,correspondingAudio,audiotrials.thisRepN,audiotrials.thisTrialN,audiotrials.thisN,audiotrials.thisIndex,visualTrials.thisRepN,visualTrials.thisTrialN,visualTrials.thisN,visualTrials.thisIndex,combinedTrials.thisRepN,combinedTrials.thisTrialN,combinedTrials.thisN,combinedTrials.thisIndex,WelcomeKey.keys,WelcomeKey.rt,key_resp_2.keys,key_resp_2.rt,AudioInstrAccept.keys,AudioInstrAccept.rt,LeftorRight.keys,LeftorRight.rt,VisualBlock.keys,VisualBlock.rt,VisualDecision.keys,VisualDecision.rt,CombinedAccept.keys,CombinedAccept.rt,CombComparisonResponse.keys,CombComparisonResponse.rt,participant,age,frameRate,sex,expName,date,
,,,,,,,,,,,,,,,,,space,13.4250280857,,,,,,,,,,,,,,,participant11,27,59.873723279,M,trial,2017_May_28_1348,
,,,,,,,,,,,,,,,,,,,space,9.58940196037,,,,,,,,,,,,,participant11,27,59.873723279,M,trial,2017_May_28_1348,
,,,,,,,,,,,,,,,,,,,,,space,18.0905258656,,,,,,,,,,,participant11,27,59.873723279,M,trial,2017_May_28_1348,
/sounds/legit/left35.wav,left30,,,,0,0,0,2,,,,,,,,,,,,,,,left,4.67784905434,,,,,,,,,participant11,27,59.873723279,M,trial,2017_May_28_1348,
/sounds/legit/left70.wav,left60,,,,0,1,1,1,,,,,,,,,,,,,,,left,5.5965628624,,,,,,,,,participant11,27,59.873723279,M,trial,2017_May_28_1348,
/sounds/legit/right35.wav,right30,,,,0,2,2,3,,,,,,,,,,,,,,,left,68.5483939648,,,,,,,,,participant11,27,59.873723279,M,trial,2017_May_28_1348,
/sounds/legit/left100.wav,left100,,,,0,3,3,0,,,,,,,,,,,,,,,left,6.29811406136,,,,,,,,,participant11,27,59.873723279,M,trial,2017_May_28_1348,
/sounds/legit/right100.wav,right100,,,,0,4,4,5,,,,,,,,,,,,,,,right,17.5055270195,,,,,,,,,participant11,27,59.873723279,M,trial,2017_May_28_1348,
/sounds/legit/right70.wav,right60,,,,0,5,5,4,,,,,,,,,,,,,,,left,9.70527887344,,,,,,,,,participant11,27,59.873723279,M,trial,2017_May_28_1348,
/sounds/legit/equal.wav,equal,,,,0,6,6,6,,,,,,,,,,,,,,,left,1.50451803207,,,,,,,,,participant11,27,59.873723279,M,trial,2017_May_28_1348,
/sounds/legit/right70.wav,right60,,,,1,0,7,4,,,,,,,,,,,,,,,right,3.84330701828,,,,,,,,,participant11,27,59.873723279,M,trial,2017_May_28_1348,
/sounds/legit/right100.wav,right100,,,,1,1,8,5,,,,,,,,,,,,,,,left,59.7291829586,,,,,,,,,participant11,27,59.873723279,M,trial,2017_May_28_1348,
/sounds/legit/left70.wav,left60,,,,1,2,9,1,,,,,,,,,,,,,,,left,2.02194499969,,,,,,,,,participant11,27,59.873723279,M,trial,2017_May_28_1348,
/sounds/legit/equal.wav,equal,,,,1,3,10,6,,,,,,,,,,,,,,,left,0.586081027985,,,,,,,,,participant11,27,59.873723279,M,trial,2017_May_28_1348,
/sounds/legit/left100.wav,left100,,,,1,4,11,0,,,,,,,,,,,,,,,left,0.435961961746,,,,,,,,,participant11,27,59.873723279,M,trial,2017_May_28_1348,
/sounds/legit/left35.wav,left30,,,,1,5,12,2,,,,,,,,,,,,,,,left,0.619396924973,,,,,,,,,participant11,27,59.873723279,M,trial,2017_May_28_1348,
/sounds/legit/right35.wav,right30,,,,1,6,13,3,,,,,,,,,,,,,,,left,0.452035903931,,,,,,,,,participant11,27,59.873723279,M,trial,2017_May_28_1348,
/sounds/legit/equal.wav,equal,,,,2,0,14,6,,,,,,,,,,,,,,,left,0.23529791832,,,,,,,,,participant11,27,59.873723279,M,trial,2017_May_28_1348,
/sounds/legit/left70.wav,left60,,,,2,1,15,1,,,,,,,,,,,,,,,left,0.769581079483,,,,,,,,,participant11,27,59.873723279,M,trial,2017_May_28_1348,
/sounds/legit/left35.wav,left30,,,,2,2,16,2,,,,,,,,,,,,,,,left,1.85546684265,,,,,,,,,participant11,27,59.873723279,M,trial,2017_May_28_1348,
/sounds/legit/right100.wav,right100,,,,2,3,17,5,,,,,,,,,,,,,,,right,0.40208697319,,,,,,,,,participant11,27,59.873723279,M,trial,2017_May_28_1348,
/sounds/legit/right35.wav,right30,,,,2,4,18,3,,,,,,,,,,,,,,,right,1.03695297241,,,,,,,,,participant11,27,59.873723279,M,trial,2017_May_28_1348,
/sounds/legit/left100.wav,left100,,,,2,5,19,0,,,,,,,,,,,,,,,left,0.986533880234,,,,,,,,,participant11,27,59.873723279,M,trial,2017_May_28_1348,
/sounds/legit/right70.wav,right60,,,,2,6,20,4,,,,,,,,,,,,,,,right,0.669502973557,,,,,,,,,participant11,27,59.873723279,M,trial,2017_May_28_1348,
/sounds/legit/right70.wav,right60,,,,3,0,21,4,,,,,,,,,,,,,,,right,0.886281013489,,,,,,,,,participant11,27,59.873723279,M,trial,2017_May_28_1348,
/sounds/legit/left100.wav,left100,,,,3,1,22,0,,,,,,,,,,,,,,,left,0.435453176498,,,,,,,,,participant11,27,59.873723279,M,trial,2017_May_28_1348,
/sounds/legit/left70.wav,left60,,,,3,2,23,1,,,,,,,,,,,,,,,left,0.285274982452,,,,,,,,,participant11,27,59.873723279,M,trial,2017_May_28_1348,
/sounds/legit/right35.wav,right30,,,,3,3,24,3,,,,,,,,,,,,,,,left,4.37719988823,,,,,,,,,participant11,27,59.873723279,M,trial,2017_May_28_1348,
/sounds/legit/right100.wav,right100,,,,3,4,25,5,,,,,,,,,,,,,,,right,0.803091049194,,,,,,,,,participant11,27,59.873723279,M,trial,2017_May_28_1348,
/sounds/legit/equal.wav,equal,,,,3,5,26,6,,,,,,,,,,,,,,,left,0.652757883072,,,,,,,,,participant11,27,59.873723279,M,trial,2017_May_28_1348,
/sounds/legit/left35.wav,left30,,,,3,6,27,2,,,,,,,,,,,,,,,left,0.535889863968,,,,,,,,,participant11,27,59.873723279,M,trial,2017_May_28_1348,
/sounds/legit/right70.wav,right60,,,,4,0,28,4,,,,,,,,,,,,,,,right,0.419006109238,,,,,,,,,participant11,27,59.873723279,M,trial,2017_May_28_1348,
/sounds/legit/equal.wav,equal,,,,4,1,29,6,,,,,,,,,,,,,,,left,0.468950033188,,,,,,,,,participant11,27,59.873723279,M,trial,2017_May_28_1348,
/sounds/legit/right100.wav,right100,,,,4,2,30,5,,,,,,,,,,,,,,,right,0.317698001862,,,,,,,,,participant11,27,59.873723279,M,trial,2017_May_28_1348,
/sounds/legit/left35.wav,left30,,,,4,3,31,2,,,,,,,,,,,,,,,left,0.302123785019,,,,,,,,,participant11,27,59.873723279,M,trial,2017_May_28_1348,
/sounds/legit/left70.wav,left60,,,,4,4,32,1,,,,,,,,,,,,,,,left,0.435581922531,,,,,,,,,participant11,27,59.873723279,M,trial,2017_May_28_1348,
/sounds/legit/left100.wav,left100,,,,4,5,33,0,,,,,,,,,,,,,,,left,0.30206489563,,,,,,,,,participant11,27,59.873723279,M,trial,2017_May_28_1348,
/sounds/legit/right35.wav,right30,,,,4,6,34,3,,,,,,,,,,,,,,,left,0.51881313324,,,,,,,,,participant11,27,59.873723279,M,trial,2017_May_28_1348,
/sounds/legit/right70.wav,right60,,,,5,0,35,4,,,,,,,,,,,,,,,right,0.251977205276,,,,,,,,,participant11,27,59.873723279,M,trial,2017_May_28_1348,
/sounds/legit/left35.wav,left30,,,,5,1,36,2,,,,,,,,,,,,,,,left,0.285146951675,,,,,,,,,participant11,27,59.873723279,M,trial,2017_May_28_1348,
/sounds/legit/left70.wav,left60,,,,5,2,37,1,,,,,,,,,,,,,,,left,0.369105100632,,,,,,,,,participant11,27,59.873723279,M,trial,2017_May_28_1348,
/sounds/legit/equal.wav,equal,,,,5,3,38,6,,,,,,,,,,,,,,,left,1.35441017151,,,,,,,,,participant11,27,59.873723279,M,trial,2017_May_28_1348,
/sounds/legit/left100.wav,left100,,,,5,4,39,0,,,,,,,,,,,,,,,left,0.502339839935,,,,,,,,,participant11,27,59.873723279,M,trial,2017_May_28_1348,
/sounds/legit/right100.wav,right100,,,,5,5,40,5,,,,,,,,,,,,,,,right,0.669360876083,,,,,,,,,participant11,27,59.873723279,M,trial,2017_May_28_1348,
/sounds/legit/right35.wav,right30,,,,5,6,41,3,,,,,,,,,,,,,,,left,0.468694925308,,,,,,,,,participant11,27,59.873723279,M,trial,2017_May_28_1348,
/sounds/legit/left100.wav,left100,,,,6,0,42,0,,,,,,,,,,,,,,,left,0.601734876633,,,,,,,,,participant11,27,59.873723279,M,trial,2017_May_28_1348,
/sounds/legit/right100.wav,right100,,,,6,1,43,5,,,,,,,,,,,,,,,right,0.185150146484,,,,,,,,,participant11,27,59.873723279,M,trial,2017_May_28_1348,
/sounds/legit/right35.wav,right30,,,,6,2,44,3,,,,,,,,,,,,,,,left,0.368669986725,,,,,,,,,participant11,27,59.873723279,M,trial,2017_May_28_1348,
/sounds/legit/right70.wav,right60,,,,6,3,45,4,,,,,,,,,,,,,,,right,0.335232973099,,,,,,,,,participant11,27,59.873723279,M,trial,2017_May_28_1348,
/sounds/legit/left70.wav,left60,,,,6,4,46,1,,,,,,,,,,,,,,,left,0.418774843216,,,,,,,,,participant11,27,59.873723279,M,trial,2017_May_28_1348,
/sounds/legit/equal.wav,equal,,,,6,5,47,6,,,,,,,,,,,,,,,left,1.83847784996,,,,,,,,,participant11,27,59.873723279,M,trial,2017_May_28_1348,
/sounds/legit/left35.wav,left30,,,,6,6,48,2,,,,,,,,,,,,,,,left,0.402008056641,,,,,,,,,participant11,27,59.873723279,M,trial,2017_May_28_1348,
/sounds/legit/equal.wav,equal,,,,7,0,49,6,,,,,,,,,,,,,,,left,0.251898050308,,,,,,,,,participant11,27,59.873723279,M,trial,2017_May_28_1348,
/sounds/legit/left70.wav,left60,,,,7,1,50,1,,,,,,,,,,,,,,,left,0.60280418396,,,,,,,,,participant11,27,59.873723279,M,trial,2017_May_28_1348,
/sounds/legit/left100.wav,left100,,,,7,2,51,0,,,,,,,,,,,,,,,left,0.368468999863,,,,,,,,,participant11,27,59.873723279,M,trial,2017_May_28_1348,
/sounds/legit/right35.wav,right30,,,,7,3,52,3,,,,,,,,,,,,,,,right,1.75521302223,,,,,,,,,participant11,27,59.873723279,M,trial,2017_May_28_1348,
/sounds/legit/left35.wav,left30,,,,7,4,53,2,,,,,,,,,,,,,,,left,0.370229005814,,,,,,,,,participant11,27,59.873723279,M,trial,2017_May_28_1348,
/sounds/legit/right70.wav,right60,,,,7,5,54,4,,,,,,,,,,,,,,,right,1.00323295593,,,,,,,,,participant11,27,59.873723279,M,trial,2017_May_28_1348,
/sounds/legit/right100.wav,right100,,,,7,6,55,5,,,,,,,,,,,,,,,right,0.285409927368,,,,,,,,,participant11,27,59.873723279,M,trial,2017_May_28_1348,
/sounds/legit/right100.wav,right100,,,,8,0,56,5,,,,,,,,,,,,,,,right,0.451287031174,,,,,,,,,participant11,27,59.873723279,M,trial,2017_May_28_1348,
/sounds/legit/equal.wav,equal,,,,8,1,57,6,,,,,,,,,,,,,,,left,1.50443410873,,,,,,,,,participant11,27,59.873723279,M,trial,2017_May_28_1348,
/sounds/legit/left70.wav,left60,,,,8,2,58,1,,,,,,,,,,,,,,,left,0.38543510437,,,,,,,,,participant11,27,59.873723279,M,trial,2017_May_28_1348,
/sounds/legit/left100.wav,left100,,,,8,3,59,0,,,,,,,,,,,,,,,left,0.251981973648,,,,,,,,,participant11,27,59.873723279,M,trial,2017_May_28_1348,
/sounds/legit/right35.wav,right30,,,,8,4,60,3,,,,,,,,,,,,,,,right,0.786393880844,,,,,,,,,participant11,27,59.873723279,M,trial,2017_May_28_1348,
/sounds/legit/right70.wav,right60,,,,8,5,61,4,,,,,,,,,,,,,,,right,1.48755812645,,,,,,,,,participant11,27,59.873723279,M,trial,2017_May_28_1348,
/sounds/legit/left35.wav,left30,,,,8,6,62,2,,,,,,,,,,,,,,,left,4.4106760025,,,,,,,,,participant11,27,59.873723279,M,trial,2017_May_28_1348,
/sounds/legit/left100.wav,left100,,,,9,0,63,0,,,,,,,,,,,,,,,left,1.20390295982,,,,,,,,,participant11,27,59.873723279,M,trial,2017_May_28_1348,
/sounds/legit/right35.wav,right30,,,,9,1,64,3,,,,,,,,,,,,,,,left,1.57032895088,,,,,,,,,participant11,27,59.873723279,M,trial,2017_May_28_1348,
/sounds/legit/left35.wav,left30,,,,9,2,65,2,,,,,,,,,,,,,,,left,0.769572019577,,,,,,,,,participant11,27,59.873723279,M,trial,2017_May_28_1348,
/sounds/legit/right100.wav,right100,,,,9,3,66,5,,,,,,,,,,,,,,,right,0.48570394516,,,,,,,,,participant11,27,59.873723279,M,trial,2017_May_28_1348,
/sounds/legit/right70.wav,right60,,,,9,4,67,4,,,,,,,,,,,,,,,right,1.5714609623,,,,,,,,,participant11,27,59.873723279,M,trial,2017_May_28_1348,
/sounds/legit/left70.wav,left60,,,,9,5,68,1,,,,,,,,,,,,,,,left,1.70515489578,,,,,,,,,participant11,27,59.873723279,M,trial,2017_May_28_1348,
/sounds/legit/equal.wav,equal,,,,9,6,69,6,,,,,,,,,,,,,,,left,0.735389947891,,,,,,,,,participant11,27,59.873723279,M,trial,2017_May_28_1348,
,,,,,,,,,,,,,,,,,,,,,,,,,space,32.6718199253,,,,,,,participant11,27,59.873723279,M,trial,2017_May_28_1348,
,,0.23,"[-4.5, 0]",/sounds/legit/left70.wav,,,,,0,0,0,26,,,,,,,,,,,,,,,left,0.552569150925,,,,,participant11,27,59.873723279,M,trial,2017_May_28_1348,
,,0.49,"[6.75, 0]",/sounds/legit/right100.wav,,,,,0,1,1,18,,,,,,,,,,,,,,,right,0.268689155579,,,,,participant11,27,59.873723279,M,trial,2017_May_28_1348,
,,0.62,"[6.75, 0]",/sounds/legit/right100.wav,,,,,0,2,2,19,,,,,,,,,,,,,,,right,19.342592001,,,,,participant11,27,59.873723279,M,trial,2017_May_28_1348,
,,0.23,"[0, 0]",/sounds/legit/equal.wav,,,,,0,3,3,1,,,,,,,,,,,,,,,left,0.819598913193,,,,,participant11,27,59.873723279,M,trial,2017_May_28_1348,
,,0.1,"[4.5, 0]",/sounds/legit/right70.wav,,,,,0,4,4,10,,,,,,,,,,,,,,,right,0.235247135162,,,,,participant11,27,59.873723279,M,trial,2017_May_28_1348,
,,0.1,"[6.75, 0]",/sounds/legit/right100.wav,,,,,0,5,5,15,,,,,,,,,,,,,,,right,0.385522842407,,,,,participant11,27,59.873723279,M,trial,2017_May_28_1348,
,,0.49,"[2.25, 0]",/sounds/legit/right35.wav,,,,,0,6,6,8,,,,,,,,,,,,,,,right,0.369129896164,,,,,participant11,27,59.873723279,M,trial,2017_May_28_1348,
,,0.1,"[-2.25, 0]",/sounds/legit/left35.wav,,,,,0,7,7,20,,,,,,,,,,,,,,,left,0.45227098465,,,,,participant11,27,59.873723279,M,trial,2017_May_28_1348,
,,0.62,"[-2.25, 0]",/sounds/legit/left35.wav,,,,,0,8,8,24,,,,,,,,,,,,,,,left,0.719293117523,,,,,participant11,27,59.873723279,M,trial,2017_May_28_1348,
,,0.62,"[-4.5, 0]",/sounds/legit/left70.wav,,,,,0,9,9,29,,,,,,,,,,,,,,,right,1.37093186378,,,,,participant11,27,59.873723279,M,trial,2017_May_28_1348,
,,0.36,"[2.25, 0]",/sounds/legit/right35.wav,,,,,0,10,10,7,,,,,,,,,,,,,,,right,0.285242080688,,,,,participant11,27,59.873723279,M,trial,2017_May_28_1348,
,,0.36,"[6.75, 0]",/sounds/legit/right100.wav,,,,,0,11,11,17,,,,,,,,,,,,,,,right,0.35218000412,,,,,participant11,27,59.873723279,M,trial,2017_May_28_1348,
,,0.23,"[4.5, 0]",/sounds/legit/right70.wav,,,,,0,12,12,11,,,,,,,,,,,,,,,right,1.42113780975,,,,,participant11,27,59.873723279,M,trial,2017_May_28_1348,
,,0.1,"[2.25, 0]",/sounds/legit/right35.wav,,,,,0,13,13,5,,,,,,,,,,,,,,,right,1.57146286964,,,,,participant11,27,59.873723279,M,trial,2017_May_28_1348,
,,0.36,"[4.5, 0]",/sounds/legit/right70.wav,,,,,0,14,14,12,,,,,,,,,,,,,,,right,0.385553836823,,,,,participant11,27,59.873723279,M,trial,2017_May_28_1348,
,,0.62,"[4.5, 0]",/sounds/legit/right70.wav,,,,,0,15,15,14,,,,,,,,,,,,,,,left,0.78657913208,,,,,participant11,27,59.873723279,M,trial,2017_May_28_1348,
,,0.23,"[6.75, 0]",/sounds/legit/right100.wav,,,,,0,16,16,16,,,,,,,,,,,,,,,right,0.451354026794,,,,,participant11,27,59.873723279,M,trial,2017_May_28_1348,
,,0.62,"[-6.75, 0]",/sounds/legit/left100.wav,,,,,0,17,17,34,,,,,,,,,,,,,,,left,1.22071003914,,,,,participant11,27,59.873723279,M,trial,2017_May_28_1348,
,,0.1,"[0, 0]",/sounds/legit/equal.wav,,,,,0,18,18,0,,,,,,,,,,,,,,,left,0.970170974731,,,,,participant11,27,59.873723279,M,trial,2017_May_28_1348,
,,0.62,"[0, 0]",/sounds/legit/equal.wav,,,,,0,19,19,4,,,,,,,,,,,,,,,left,1.60475587845,,,,,participant11,27,59.873723279,M,trial,2017_May_28_1348,
,,0.23,"[2.25, 0]",/sounds/legit/right35.wav,,,,,0,20,20,6,,,,,,,,,,,,,,,left,0.619341850281,,,,,participant11,27,59.873723279,M,trial,2017_May_28_1348,
,,0.62,"[2.25, 0]",/sounds/legit/right35.wav,,,,,0,21,21,9,,,,,,,,,,,,,,,left,0.569427013397,,,,,participant11,27,59.873723279,M,trial,2017_May_28_1348,
,,0.36,"[0, 0]",/sounds/legit/equal.wav,,,,,0,22,22,2,,,,,,,,,,,,,,,left,0.3690969944,,,,,participant11,27,59.873723279,M,trial,2017_May_28_1348,
,,0.36,"[-4.5, 0]",/sounds/legit/left70.wav,,,,,0,23,23,27,,,,,,,,,,,,,,,left,0.31884598732,,,,,participant11,27,59.873723279,M,trial,2017_May_28_1348,
,,0.1,"[-4.5, 0]",/sounds/legit/left70.wav,,,,,0,24,24,25,,,,,,,,,,,,,,,left,0.251756191254,,,,,participant11,27,59.873723279,M,trial,2017_May_28_1348,
,,0.36,"[-6.75, 0]",/sounds/legit/left100.wav,,,,,0,25,25,32,,,,,,,,,,,,,,,left,0.602653980255,,,,,participant11,27,59.873723279,M,trial,2017_May_28_1348,
,,0.49,"[0, 0]",/sounds/legit/equal.wav,,,,,0,26,26,3,,,,,,,,,,,,,,,left,0.41884803772,,,,,participant11,27,59.873723279,M,trial,2017_May_28_1348,
,,0.49,"[4.5, 0]",/sounds/legit/right70.wav,,,,,0,27,27,13,,,,,,,,,,,,,,,right,0.519199132919,,,,,participant11,27,59.873723279,M,trial,2017_May_28_1348,
,,0.1,"[-6.75, 0]",/sounds/legit/left100.wav,,,,,0,28,28,30,,,,,,,,,,,,,,,left,0.752960205078,,,,,participant11,27,59.873723279,M,trial,2017_May_28_1348,
,,0.49,"[-4.5, 0]",/sounds/legit/left70.wav,,,,,0,29,29,28,,,,,,,,,,,,,,,left,0.919930934906,,,,,participant11,27,59.873723279,M,trial,2017_May_28_1348,
,,0.49,"[-6.75, 0]",/sounds/legit/left100.wav,,,,,0,30,30,33,,,,,,,,,,,,,,,left,2.28935098648,,,,,participant11,27,59.873723279,M,trial,2017_May_28_1348,
,,0.49,"[-2.25, 0]",/sounds/legit/left35.wav,,,,,0,31,31,23,,,,,,,,,,,,,,,left,3.22528505325,,,,,participant11,27,59.873723279,M,trial,2017_May_28_1348,
,,0.23,"[-6.75, 0]",/sounds/legit/left100.wav,,,,,0,32,32,31,,,,,,,,,,,,,,,left,0.268591880798,,,,,participant11,27,59.873723279,M,trial,2017_May_28_1348,
,,0.36,"[-2.25, 0]",/sounds/legit/left35.wav,,,,,0,33,33,22,,,,,,,,,,,,,,,left,1.48769497871,,,,,participant11,27,59.873723279,M,trial,2017_May_28_1348,
,,0.23,"[-2.25, 0]",/sounds/legit/left35.wav,,,,,0,34,34,21,,,,,,,,,,,,,,,left,0.435981035233,,,,,participant11,27,59.873723279,M,trial,2017_May_28_1348,
,,0.36,"[-6.75, 0]",/sounds/legit/left100.wav,,,,,1,0,35,32,,,,,,,,,,,,,,,left,0.352051973343,,,,,participant11,27,59.873723279,M,trial,2017_May_28_1348,
,,0.49,"[4.5, 0]",/sounds/legit/right70.wav,,,,,1,1,36,13,,,,,,,,,,,,,,,right,0.853207111359,,,,,participant11,27,59.873723279,M,trial,2017_May_28_1348,
,,0.62,"[-2.25, 0]",/sounds/legit/left35.wav,,,,,1,2,37,24,,,,,,,,,,,,,,,left,1.77242016792,,,,,participant11,27,59.873723279,M,trial,2017_May_28_1348,
,,0.49,"[-6.75, 0]",/sounds/legit/left100.wav,,,,,1,3,38,33,,,,,,,,,,,,,,,left,0.236554145813,,,,,participant11,27,59.873723279,M,trial,2017_May_28_1348,
,,0.1,"[2.25, 0]",/sounds/legit/right35.wav,,,,,1,4,39,5,,,,,,,,,,,,,,,right,0.43581199646,,,,,participant11,27,59.873723279,M,trial,2017_May_28_1348,
,,0.36,"[0, 0]",/sounds/legit/equal.wav,,,,,1,5,40,2,,,,,,,,,,,,,,,right,1.87215399742,,,,,participant11,27,59.873723279,M,trial,2017_May_28_1348,
,,0.49,"[2.25, 0]",/sounds/legit/right35.wav,,,,,1,6,41,8,,,,,,,,,,,,,,,right,0.568509817123,,,,,participant11,27,59.873723279,M,trial,2017_May_28_1348,
,,0.23,"[6.75, 0]",/sounds/legit/right100.wav,,,,,1,7,42,16,,,,,,,,,,,,,,,right,0.518115997314,,,,,participant11,27,59.873723279,M,trial,2017_May_28_1348,
,,0.62,"[4.5, 0]",/sounds/legit/right70.wav,,,,,1,8,43,14,,,,,,,,,,,,,,,left,2.43993401527,,,,,participant11,27,59.873723279,M,trial,2017_May_28_1348,
,,0.23,"[-2.25, 0]",/sounds/legit/left35.wav,,,,,1,9,44,21,,,,,,,,,,,,,,,left,0.469002008438,,,,,participant11,27,59.873723279,M,trial,2017_May_28_1348,
,,0.23,"[-6.75, 0]",/sounds/legit/left100.wav,,,,,1,10,45,31,,,,,,,,,,,,,,,left,0.518952131271,,,,,participant11,27,59.873723279,M,trial,2017_May_28_1348,
,,0.49,"[-4.5, 0]",/sounds/legit/left70.wav,,,,,1,11,46,28,,,,,,,,,,,,,,,left,0.919766902924,,,,,participant11,27,59.873723279,M,trial,2017_May_28_1348,
,,0.1,"[4.5, 0]",/sounds/legit/right70.wav,,,,,1,12,47,10,,,,,,,,,,,,,,,right,0.920084953308,,,,,participant11,27,59.873723279,M,trial,2017_May_28_1348,
,,0.49,"[0, 0]",/sounds/legit/equal.wav,,,,,1,13,48,3,,,,,,,,,,,,,,,left,0.886856079102,,,,,participant11,27,59.873723279,M,trial,2017_May_28_1348,
,,0.62,"[2.25, 0]",/sounds/legit/right35.wav,,,,,1,14,49,9,,,,,,,,,,,,,,,left,0.936707019806,,,,,participant11,27,59.873723279,M,trial,2017_May_28_1348,
,,0.23,"[2.25, 0]",/sounds/legit/right35.wav,,,,,1,15,50,6,,,,,,,,,,,,,,,right,0.586061954498,,,,,participant11,27,59.873723279,M,trial,2017_May_28_1348,
,,0.49,"[-2.25, 0]",/sounds/legit/left35.wav,,,,,1,16,51,23,,,,,,,,,,,,,,,left,0.786271095276,,,,,participant11,27,59.873723279,M,trial,2017_May_28_1348,
,,0.62,"[-4.5, 0]",/sounds/legit/left70.wav,,,,,1,17,52,29,,,,,,,,,,,,,,,left,1.00353980064,,,,,participant11,27,59.873723279,M,trial,2017_May_28_1348,
,,0.36,"[-2.25, 0]",/sounds/legit/left35.wav,,,,,1,18,53,22,,,,,,,,,,,,,,,left,1.23705887794,,,,,participant11,27,59.873723279,M,trial,2017_May_28_1348,
,,0.1,"[-4.5, 0]",/sounds/legit/left70.wav,,,,,1,19,54,25,,,,,,,,,,,,,,,left,0.903124809265,,,,,participant11,27,59.873723279,M,trial,2017_May_28_1348,
,,0.36,"[6.75, 0]",/sounds/legit/right100.wav,,,,,1,20,55,17,,,,,,,,,,,,,,,right,1.1873190403,,,,,participant11,27,59.873723279,M,trial,2017_May_28_1348,
,,0.23,"[-4.5, 0]",/sounds/legit/left70.wav,,,,,1,21,56,26,,,,,,,,,,,,,,,left,0.719776153564,,,,,participant11,27,59.873723279,M,trial,2017_May_28_1348,
,,0.36,"[2.25, 0]",/sounds/legit/right35.wav,,,,,1,22,57,7,,,,,,,,,,,,,,,right,0.953250169754,,,,,participant11,27,59.873723279,M,trial,2017_May_28_1348,
,,0.36,"[4.5, 0]",/sounds/legit/right70.wav,,,,,1,23,58,12,,,,,,,,,,,,,,,right,0.986631155014,,,,,participant11,27,59.873723279,M,trial,2017_May_28_1348,
,,0.36,"[-4.5, 0]",/sounds/legit/left70.wav,,,,,1,24,59,27,,,,,,,,,,,,,,,left,1.43771791458,,,,,participant11,27,59.873723279,M,trial,2017_May_28_1348,
,,0.23,"[0, 0]",/sounds/legit/equal.wav,,,,,1,25,60,1,,,,,,,,,,,,,,,left,1.28746509552,,,,,participant11,27,59.873723279,M,trial,2017_May_28_1348,
,,0.62,"[6.75, 0]",/sounds/legit/right100.wav,,,,,1,26,61,19,,,,,,,,,,,,,,,right,1.9221200943,,,,,participant11,27,59.873723279,M,trial,2017_May_28_1348,
,,0.62,"[0, 0]",/sounds/legit/equal.wav,,,,,1,27,62,4,,,,,,,,,,,,,,,right,1.25401687622,,,,,participant11,27,59.873723279,M,trial,2017_May_28_1348,
,,0.1,"[6.75, 0]",/sounds/legit/right100.wav,,,,,1,28,63,15,,,,,,,,,,,,,,,right,0.73636007309,,,,,participant11,27,59.873723279,M,trial,2017_May_28_1348,
,,0.62,"[-6.75, 0]",/sounds/legit/left100.wav,,,,,1,29,64,34,,,,,,,,,,,,,,,left,0.585792064667,,,,,participant11,27,59.873723279,M,trial,2017_May_28_1348,
,,0.49,"[6.75, 0]",/sounds/legit/right100.wav,,,,,1,30,65,18,,,,,,,,,,,,,,,right,0.552737951279,,,,,participant11,27,59.873723279,M,trial,2017_May_28_1348,
,,0.23,"[4.5, 0]",/sounds/legit/right70.wav,,,,,1,31,66,11,,,,,,,,,,,,,,,right,0.636054992676,,,,,participant11,27,59.873723279,M,trial,2017_May_28_1348,
,,0.1,"[0, 0]",/sounds/legit/equal.wav,,,,,1,32,67,0,,,,,,,,,,,,,,,left,0.737293958664,,,,,participant11,27,59.873723279,M,trial,2017_May_28_1348,
,,0.1,"[-6.75, 0]",/sounds/legit/left100.wav,,,,,1,33,68,30,,,,,,,,,,,,,,,left,0.635895967484,,,,,participant11,27,59.873723279,M,trial,2017_May_28_1348,
,,0.1,"[-2.25, 0]",/sounds/legit/left35.wav,,,,,1,34,69,20,,,,,,,,,,,,,,,left,0.569244146347,,,,,participant11,27,59.873723279,M,trial,2017_May_28_1348,
,,0.36,"[-2.25, 0]",/sounds/legit/left35.wav,,,,,2,0,70,22,,,,,,,,,,,,,,,left,0.736180067062,,,,,participant11,27,59.873723279,M,trial,2017_May_28_1348,
,,0.23,"[-4.5, 0]",/sounds/legit/left70.wav,,,,,2,1,71,26,,,,,,,,,,,,,,,left,0.535536050797,,,,,participant11,27,59.873723279,M,trial,2017_May_28_1348,
,,0.23,"[2.25, 0]",/sounds/legit/right35.wav,,,,,2,2,72,6,,,,,,,,,,,,,,,right,1.404266119,,,,,participant11,27,59.873723279,M,trial,2017_May_28_1348,
,,0.62,"[-2.25, 0]",/sounds/legit/left35.wav,,,,,2,3,73,24,,,,,,,,,,,,,,,left,0.853039979935,,,,,participant11,27,59.873723279,M,trial,2017_May_28_1348,
,,0.49,"[-4.5, 0]",/sounds/legit/left70.wav,,,,,2,4,74,28,,,,,,,,,,,,,,,left,2.18857002258,,,,,participant11,27,59.873723279,M,trial,2017_May_28_1348,
,,0.49,"[6.75, 0]",/sounds/legit/right100.wav,,,,,2,5,75,18,,,,,,,,,,,,,,,right,0.769489049911,,,,,participant11,27,59.873723279,M,trial,2017_May_28_1348,
,,0.1,"[-6.75, 0]",/sounds/legit/left100.wav,,,,,2,6,76,30,,,,,,,,,,,,,,,left,0.752917051315,,,,,participant11,27,59.873723279,M,trial,2017_May_28_1348,
,,0.1,"[-4.5, 0]",/sounds/legit/left70.wav,,,,,2,7,77,25,,,,,,,,,,,,,,,left,0.886588096619,,,,,participant11,27,59.873723279,M,trial,2017_May_28_1348,
,,0.36,"[-6.75, 0]",/sounds/legit/left100.wav,,,,,2,8,78,32,,,,,,,,,,,,,,,left,0.98770904541,,,,,participant11,27,59.873723279,M,trial,2017_May_28_1348,
,,0.62,"[2.25, 0]",/sounds/legit/right35.wav,,,,,2,9,79,9,,,,,,,,,,,,,,,left,2.27277708054,,,,,participant11,27,59.873723279,M,trial,2017_May_28_1348,
,,0.49,"[-2.25, 0]",/sounds/legit/left35.wav,,,,,2,10,80,23,,,,,,,,,,,,,,,left,0.886439085007,,,,,participant11,27,59.873723279,M,trial,2017_May_28_1348,
,,0.62,"[-4.5, 0]",/sounds/legit/left70.wav,,,,,2,11,81,29,,,,,,,,,,,,,,,left,0.585842132568,,,,,participant11,27,59.873723279,M,trial,2017_May_28_1348,
,,0.1,"[4.5, 0]",/sounds/legit/right70.wav,,,,,2,12,82,10,,,,,,,,,,,,,,,right,0.368874788284,,,,,participant11,27,59.873723279,M,trial,2017_May_28_1348,
,,0.49,"[2.25, 0]",/sounds/legit/right35.wav,,,,,2,13,83,8,,,,,,,,,,,,,,,right,0.652642965317,,,,,participant11,27,59.873723279,M,trial,2017_May_28_1348,
,,0.23,"[-2.25, 0]",/sounds/legit/left35.wav,,,,,2,14,84,21,,,,,,,,,,,,,,,left,0.351903915405,,,,,participant11,27,59.873723279,M,trial,2017_May_28_1348,
,,0.36,"[0, 0]",/sounds/legit/equal.wav,,,,,2,15,85,2,,,,,,,,,,,,,,,left,0.619335174561,,,,,participant11,27,59.873723279,M,trial,2017_May_28_1348,
,,0.23,"[-6.75, 0]",/sounds/legit/left100.wav,,,,,2,16,86,31,,,,,,,,,,,,,,,left,0.819771051407,,,,,participant11,27,59.873723279,M,trial,2017_May_28_1348,
,,0.1,"[6.75, 0]",/sounds/legit/right100.wav,,,,,2,17,87,15,,,,,,,,,,,,,,,right,1.30419397354,,,,,participant11,27,59.873723279,M,trial,2017_May_28_1348,
,,0.49,"[-6.75, 0]",/sounds/legit/left100.wav,,,,,2,18,88,33,,,,,,,,,,,,,,,left,1.7552728653,,,,,participant11,27,59.873723279,M,trial,2017_May_28_1348,
,,0.62,"[-6.75, 0]",/sounds/legit/left100.wav,,,,,2,19,89,34,,,,,,,,,,,,,,,left,1.30306816101,,,,,participant11,27,59.873723279,M,trial,2017_May_28_1348,
,,0.49,"[4.5, 0]",/sounds/legit/right70.wav,,,,,2,20,90,13,,,,,,,,,,,,,,,right,2.40648508072,,,,,participant11,27,59.873723279,M,trial,2017_May_28_1348,
,,0.1,"[0, 0]",/sounds/legit/equal.wav,,,,,2,21,91,0,,,,,,,,,,,,,,,left,0.802999973297,,,,,participant11,27,59.873723279,M,trial,2017_May_28_1348,
,,0.49,"[0, 0]",/sounds/legit/equal.wav,,,,,2,22,92,3,,,,,,,,,,,,,,,right,0.903071880341,,,,,participant11,27,59.873723279,M,trial,2017_May_28_1348,
,,0.36,"[4.5, 0]",/sounds/legit/right70.wav,,,,,2,23,93,12,,,,,,,,,,,,,,,left,0.635162115097,,,,,participant11,27,59.873723279,M,trial,2017_May_28_1348,
,,0.36,"[-4.5, 0]",/sounds/legit/left70.wav,,,,,2,24,94,27,,,,,,,,,,,,,,,left,1.03745698929,,,,,participant11,27,59.873723279,M,trial,2017_May_28_1348,
,,0.1,"[-2.25, 0]",/sounds/legit/left35.wav,,,,,2,25,95,20,,,,,,,,,,,,,,,left,0.602473974228,,,,,participant11,27,59.873723279,M,trial,2017_May_28_1348,
,,0.23,"[4.5, 0]",/sounds/legit/right70.wav,,,,,2,26,96,11,,,,,,,,,,,,,,,left,4.86073708534,,,,,participant11,27,59.873723279,M,trial,2017_May_28_1348,
,,0.23,"[6.75, 0]",/sounds/legit/right100.wav,,,,,2,27,97,16,,,,,,,,,,,,,,,right,0.418684005737,,,,,participant11,27,59.873723279,M,trial,2017_May_28_1348,
,,0.1,"[2.25, 0]",/sounds/legit/right35.wav,,,,,2,28,98,5,,,,,,,,,,,,,,,right,0.434751987457,,,,,participant11,27,59.873723279,M,trial,2017_May_28_1348,
,,0.36,"[6.75, 0]",/sounds/legit/right100.wav,,,,,2,29,99,17,,,,,,,,,,,,,,,right,0.66953086853,,,,,participant11,27,59.873723279,M,trial,2017_May_28_1348,
,,0.62,"[6.75, 0]",/sounds/legit/right100.wav,,,,,2,30,100,19,,,,,,,,,,,,,,,right,0.552722930908,,,,,participant11,27,59.873723279,M,trial,2017_May_28_1348,
,,0.36,"[2.25, 0]",/sounds/legit/right35.wav,,,,,2,31,101,7,,,,,,,,,,,,,,,right,2.40664410591,,,,,participant11,27,59.873723279,M,trial,2017_May_28_1348,
,,0.62,"[4.5, 0]",/sounds/legit/right70.wav,,,,,2,32,102,14,,,,,,,,,,,,,,,right,0.769381999969,,,,,participant11,27,59.873723279,M,trial,2017_May_28_1348,
,,0.62,"[0, 0]",/sounds/legit/equal.wav,,,,,2,33,103,4,,,,,,,,,,,,,,,right,1.75515699387,,,,,participant11,27,59.873723279,M,trial,2017_May_28_1348,
,,0.23,"[0, 0]",/sounds/legit/equal.wav,,,,,2,34,104,1,,,,,,,,,,,,,,,left,0.786545991898,,,,,participant11,27,59.873723279,M,trial,2017_May_28_1348,
,,0.23,"[-6.75, 0]",/sounds/legit/left100.wav,,,,,3,0,105,31,,,,,,,,,,,,,,,left,0.669447898865,,,,,participant11,27,59.873723279,M,trial,2017_May_28_1348,
,,0.62,"[6.75, 0]",/sounds/legit/right100.wav,,,,,3,1,106,19,,,,,,,,,,,,,,,right,1.02036190033,,,,,participant11,27,59.873723279,M,trial,2017_May_28_1348,
,,0.36,"[6.75, 0]",/sounds/legit/right100.wav,,,,,3,2,107,17,,,,,,,,,,,,,,,right,0.418859004974,,,,,participant11,27,59.873723279,M,trial,2017_May_28_1348,
,,0.49,"[-6.75, 0]",/sounds/legit/left100.wav,,,,,3,3,108,33,,,,,,,,,,,,,,,left,0.736294031143,,,,,participant11,27,59.873723279,M,trial,2017_May_28_1348,
,,0.49,"[2.25, 0]",/sounds/legit/right35.wav,,,,,3,4,109,8,,,,,,,,,,,,,,,right,0.586313962936,,,,,participant11,27,59.873723279,M,trial,2017_May_28_1348,
,,0.23,"[0, 0]",/sounds/legit/equal.wav,,,,,3,5,110,1,,,,,,,,,,,,,,,left,0.669313907623,,,,,participant11,27,59.873723279,M,trial,2017_May_28_1348,
,,0.23,"[2.25, 0]",/sounds/legit/right35.wav,,,,,3,6,111,6,,,,,,,,,,,,,,,right,0.151365995407,,,,,participant11,27,59.873723279,M,trial,2017_May_28_1348,
,,0.36,"[-2.25, 0]",/sounds/legit/left35.wav,,,,,3,7,112,22,,,,,,,,,,,,,,,left,0.385586023331,,,,,participant11,27,59.873723279,M,trial,2017_May_28_1348,
,,0.1,"[4.5, 0]",/sounds/legit/right70.wav,,,,,3,8,113,10,,,,,,,,,,,,,,,right,0.453567028046,,,,,participant11,27,59.873723279,M,trial,2017_May_28_1348,
,,0.62,"[-4.5, 0]",/sounds/legit/left70.wav,,,,,3,9,114,29,,,,,,,,,,,,,,,left,0.369010925293,,,,,participant11,27,59.873723279,M,trial,2017_May_28_1348,
,,0.49,"[-2.25, 0]",/sounds/legit/left35.wav,,,,,3,10,115,23,,,,,,,,,,,,,,,left,0.185154914856,,,,,participant11,27,59.873723279,M,trial,2017_May_28_1348,
,,0.49,"[0, 0]",/sounds/legit/equal.wav,,,,,3,11,116,3,,,,,,,,,,,,,,,left,0.368755102158,,,,,participant11,27,59.873723279,M,trial,2017_May_28_1348,
,,0.62,"[-6.75, 0]",/sounds/legit/left100.wav,,,,,3,12,117,34,,,,,,,,,,,,,,,left,5.51309704781,,,,,participant11,27,59.873723279,M,trial,2017_May_28_1348,
,,0.1,"[2.25, 0]",/sounds/legit/right35.wav,,,,,3,13,118,5,,,,,,,,,,,,,,,right,0.385046005249,,,,,participant11,27,59.873723279,M,trial,2017_May_28_1348,
,,0.49,"[4.5, 0]",/sounds/legit/right70.wav,,,,,3,14,119,13,,,,,,,,,,,,,,,right,0.686227083206,,,,,participant11,27,59.873723279,M,trial,2017_May_28_1348,
,,0.23,"[4.5, 0]",/sounds/legit/right70.wav,,,,,3,15,120,11,,,,,,,,,,,,,,,right,0.853475093842,,,,,participant11,27,59.873723279,M,trial,2017_May_28_1348,
,,0.49,"[6.75, 0]",/sounds/legit/right100.wav,,,,,3,16,121,18,,,,,,,,,,,,,,,right,0.68611907959,,,,,participant11,27,59.873723279,M,trial,2017_May_28_1348,
,,0.36,"[-6.75, 0]",/sounds/legit/left100.wav,,,,,3,17,122,32,,,,,,,,,,,,,,,left,0.569267988205,,,,,participant11,27,59.873723279,M,trial,2017_May_28_1348,
,,0.62,"[-2.25, 0]",/sounds/legit/left35.wav,,,,,3,18,123,24,,,,,,,,,,,,,,,left,0.469111919403,,,,,participant11,27,59.873723279,M,trial,2017_May_28_1348,
,,0.1,"[-6.75, 0]",/sounds/legit/left100.wav,,,,,3,19,124,30,,,,,,,,,,,,,,,left,0.586146116257,,,,,participant11,27,59.873723279,M,trial,2017_May_28_1348,
,,0.1,"[-4.5, 0]",/sounds/legit/left70.wav,,,,,3,20,125,25,,,,,,,,,,,,,,,left,0.251650094986,,,,,participant11,27,59.873723279,M,trial,2017_May_28_1348,
,,0.1,"[6.75, 0]",/sounds/legit/right100.wav,,,,,3,21,126,15,,,,,,,,,,,,,,,right,0.48566699028,,,,,participant11,27,59.873723279,M,trial,2017_May_28_1348,
,,0.23,"[6.75, 0]",/sounds/legit/right100.wav,,,,,3,22,127,16,,,,,,,,,,,,,,,left,2.23923206329,,,,,participant11,27,59.873723279,M,trial,2017_May_28_1348,
,,0.49,"[-4.5, 0]",/sounds/legit/left70.wav,,,,,3,23,128,28,,,,,,,,,,,,,,,left,0.535700082779,,,,,participant11,27,59.873723279,M,trial,2017_May_28_1348,
,,0.23,"[-2.25, 0]",/sounds/legit/left35.wav,,,,,3,24,129,21,,,,,,,,,,,,,,,left,0.569433927536,,,,,participant11,27,59.873723279,M,trial,2017_May_28_1348,
,,0.1,"[-2.25, 0]",/sounds/legit/left35.wav,,,,,3,25,130,20,,,,,,,,,,,,,,,left,0.803124904633,,,,,participant11,27,59.873723279,M,trial,2017_May_28_1348,
,,0.36,"[4.5, 0]",/sounds/legit/right70.wav,,,,,3,26,131,12,,,,,,,,,,,,,,,left,2.7070081234,,,,,participant11,27,59.873723279,M,trial,2017_May_28_1348,
,,0.36,"[2.25, 0]",/sounds/legit/right35.wav,,,,,3,27,132,7,,,,,,,,,,,,,,,right,0.702993869781,,,,,participant11,27,59.873723279,M,trial,2017_May_28_1348,
,,0.62,"[4.5, 0]",/sounds/legit/right70.wav,,,,,3,28,133,14,,,,,,,,,,,,,,,right,0.51907992363,,,,,participant11,27,59.873723279,M,trial,2017_May_28_1348,
,,0.62,"[0, 0]",/sounds/legit/equal.wav,,,,,3,29,134,4,,,,,,,,,,,,,,,right,0.586109161377,,,,,participant11,27,59.873723279,M,trial,2017_May_28_1348,
,,0.1,"[0, 0]",/sounds/legit/equal.wav,,,,,3,30,135,0,,,,,,,,,,,,,,,left,0.552345991135,,,,,participant11,27,59.873723279,M,trial,2017_May_28_1348,
,,0.23,"[-4.5, 0]",/sounds/legit/left70.wav,,,,,3,31,136,26,,,,,,,,,,,,,,,left,0.66953420639,,,,,participant11,27,59.873723279,M,trial,2017_May_28_1348,
,,0.62,"[2.25, 0]",/sounds/legit/right35.wav,,,,,3,32,137,9,,,,,,,,,,,,,,,right,1.10392403603,,,,,participant11,27,59.873723279,M,trial,2017_May_28_1348,
,,0.36,"[0, 0]",/sounds/legit/equal.wav,,,,,3,33,138,2,,,,,,,,,,,,,,,left,1.10406780243,,,,,participant11,27,59.873723279,M,trial,2017_May_28_1348,
,,0.36,"[-4.5, 0]",/sounds/legit/left70.wav,,,,,3,34,139,27,,,,,,,,,,,,,,,left,0.435575962067,,,,,participant11,27,59.873723279,M,trial,2017_May_28_1348,
,,0.36,"[6.75, 0]",/sounds/legit/right100.wav,,,,,4,0,140,17,,,,,,,,,,,,,,,right,0.418989896774,,,,,participant11,27,59.873723279,M,trial,2017_May_28_1348,
,,0.62,"[-2.25, 0]",/sounds/legit/left35.wav,,,,,4,1,141,24,,,,,,,,,,,,,,,left,3.4755179882,,,,,participant11,27,59.873723279,M,trial,2017_May_28_1348,
,,0.49,"[-6.75, 0]",/sounds/legit/left100.wav,,,,,4,2,142,33,,,,,,,,,,,,,,,left,2.50662183762,,,,,participant11,27,59.873723279,M,trial,2017_May_28_1348,
,,0.36,"[2.25, 0]",/sounds/legit/right35.wav,,,,,4,3,143,7,,,,,,,,,,,,,,,right,0.552531003952,,,,,participant11,27,59.873723279,M,trial,2017_May_28_1348,
,,0.23,"[-2.25, 0]",/sounds/legit/left35.wav,,,,,4,4,144,21,,,,,,,,,,,,,,,left,0.335018873215,,,,,participant11,27,59.873723279,M,trial,2017_May_28_1348,
,,0.62,"[4.5, 0]",/sounds/legit/right70.wav,,,,,4,5,145,14,,,,,,,,,,,,,,,right,1.77171587944,,,,,participant11,27,59.873723279,M,trial,2017_May_28_1348,
,,0.23,"[-6.75, 0]",/sounds/legit/left100.wav,,,,,4,6,146,31,,,,,,,,,,,,,,,left,0.385530233383,,,,,participant11,27,59.873723279,M,trial,2017_May_28_1348,
,,0.1,"[4.5, 0]",/sounds/legit/right70.wav,,,,,4,7,147,10,,,,,,,,,,,,,,,left,1.33766102791,,,,,participant11,27,59.873723279,M,trial,2017_May_28_1348,
,,0.1,"[6.75, 0]",/sounds/legit/right100.wav,,,,,4,8,148,15,,,,,,,,,,,,,,,right,0.468063116074,,,,,participant11,27,59.873723279,M,trial,2017_May_28_1348,
,,0.49,"[0, 0]",/sounds/legit/equal.wav,,,,,4,9,149,3,,,,,,,,,,,,,,,left,0.485603809357,,,,,participant11,27,59.873723279,M,trial,2017_May_28_1348,
,,0.36,"[0, 0]",/sounds/legit/equal.wav,,,,,4,10,150,2,,,,,,,,,,,,,,,left,0.953262090683,,,,,participant11,27,59.873723279,M,trial,2017_May_28_1348,
,,0.49,"[-4.5, 0]",/sounds/legit/left70.wav,,,,,4,11,151,28,,,,,,,,,,,,,,,left,0.569118022919,,,,,participant11,27,59.873723279,M,trial,2017_May_28_1348,
,,0.36,"[-2.25, 0]",/sounds/legit/left35.wav,,,,,4,12,152,22,,,,,,,,,,,,,,,left,0.419017076492,,,,,participant11,27,59.873723279,M,trial,2017_May_28_1348,
,,0.49,"[-2.25, 0]",/sounds/legit/left35.wav,,,,,4,13,153,23,,,,,,,,,,,,,,,left,1.12055492401,,,,,participant11,27,59.873723279,M,trial,2017_May_28_1348,
,,0.1,"[-6.75, 0]",/sounds/legit/left100.wav,,,,,4,14,154,30,,,,,,,,,,,,,,,left,2.38987898827,,,,,participant11,27,59.873723279,M,trial,2017_May_28_1348,
,,0.36,"[-6.75, 0]",/sounds/legit/left100.wav,,,,,4,15,155,32,,,,,,,,,,,,,,,left,0.435630083084,,,,,participant11,27,59.873723279,M,trial,2017_May_28_1348,
,,0.49,"[4.5, 0]",/sounds/legit/right70.wav,,,,,4,16,156,13,,,,,,,,,,,,,,,right,0.452193975449,,,,,participant11,27,59.873723279,M,trial,2017_May_28_1348,
,,0.62,"[0, 0]",/sounds/legit/equal.wav,,,,,4,17,157,4,,,,,,,,,,,,,,,left,0.535059928894,,,,,participant11,27,59.873723279,M,trial,2017_May_28_1348,
,,0.62,"[-4.5, 0]",/sounds/legit/left70.wav,,,,,4,18,158,29,,,,,,,,,,,,,,,left,0.401985883713,,,,,participant11,27,59.873723279,M,trial,2017_May_28_1348,
,,0.23,"[2.25, 0]",/sounds/legit/right35.wav,,,,,4,19,159,6,,,,,,,,,,,,,,,right,0.552670001984,,,,,participant11,27,59.873723279,M,trial,2017_May_28_1348,
,,0.23,"[-4.5, 0]",/sounds/legit/left70.wav,,,,,4,20,160,26,,,,,,,,,,,,,,,left,0.652814865112,,,,,participant11,27,59.873723279,M,trial,2017_May_28_1348,
,,0.1,"[2.25, 0]",/sounds/legit/right35.wav,,,,,4,21,161,5,,,,,,,,,,,,,,,right,1.28729391098,,,,,participant11,27,59.873723279,M,trial,2017_May_28_1348,
,,0.23,"[0, 0]",/sounds/legit/equal.wav,,,,,4,22,162,1,,,,,,,,,,,,,,,left,1.72165298462,,,,,participant11,27,59.873723279,M,trial,2017_May_28_1348,
,,0.36,"[-4.5, 0]",/sounds/legit/left70.wav,,,,,4,23,163,27,,,,,,,,,,,,,,,left,0.986043930054,,,,,participant11,27,59.873723279,M,trial,2017_May_28_1348,
,,0.49,"[6.75, 0]",/sounds/legit/right100.wav,,,,,4,24,164,18,,,,,,,,,,,,,,,right,0.468466997147,,,,,participant11,27,59.873723279,M,trial,2017_May_28_1348,
,,0.1,"[0, 0]",/sounds/legit/equal.wav,,,,,4,25,165,0,,,,,,,,,,,,,,,left,0.402132987976,,,,,participant11,27,59.873723279,M,trial,2017_May_28_1348,
,,0.49,"[2.25, 0]",/sounds/legit/right35.wav,,,,,4,26,166,8,,,,,,,,,,,,,,,right,1.35433197021,,,,,participant11,27,59.873723279,M,trial,2017_May_28_1348,
,,0.62,"[6.75, 0]",/sounds/legit/right100.wav,,,,,4,27,167,19,,,,,,,,,,,,,,,right,0.836411952972,,,,,participant11,27,59.873723279,M,trial,2017_May_28_1348,
,,0.1,"[-4.5, 0]",/sounds/legit/left70.wav,,,,,4,28,168,25,,,,,,,,,,,,,,,left,12.8288118839,,,,,participant11,27,59.873723279,M,trial,2017_May_28_1348,
,,0.62,"[-6.75, 0]",/sounds/legit/left100.wav,,,,,4,29,169,34,,,,,,,,,,,,,,,left,3.45892500877,,,,,participant11,27,59.873723279,M,trial,2017_May_28_1348,
,,0.23,"[4.5, 0]",/sounds/legit/right70.wav,,,,,4,30,170,11,,,,,,,,,,,,,,,right,0.535750150681,,,,,participant11,27,59.873723279,M,trial,2017_May_28_1348,
,,0.23,"[6.75, 0]",/sounds/legit/right100.wav,,,,,4,31,171,16,,,,,,,,,,,,,,,right,0.468867063522,,,,,participant11,27,59.873723279,M,trial,2017_May_28_1348,
,,0.36,"[4.5, 0]",/sounds/legit/right70.wav,,,,,4,32,172,12,,,,,,,,,,,,,,,right,0.402313947678,,,,,participant11,27,59.873723279,M,trial,2017_May_28_1348,
,,0.62,"[2.25, 0]",/sounds/legit/right35.wav,,,,,4,33,173,9,,,,,,,,,,,,,,,left,1.33754897118,,,,,participant11,27,59.873723279,M,trial,2017_May_28_1348,
,,0.1,"[-2.25, 0]",/sounds/legit/left35.wav,,,,,4,34,174,20,,,,,,,,,,,,,,,left,0.519209861755,,,,,participant11,27,59.873723279,M,trial,2017_May_28_1348,
,,0.1,"[-6.75, 0]",/sounds/legit/left100.wav,,,,,5,0,175,30,,,,,,,,,,,,,,,left,0.619698047638,,,,,participant11,27,59.873723279,M,trial,2017_May_28_1348,
,,0.49,"[-4.5, 0]",/sounds/legit/left70.wav,,,,,5,1,176,28,,,,,,,,,,,,,,,left,0.569510936737,,,,,participant11,27,59.873723279,M,trial,2017_May_28_1348,
,,0.49,"[4.5, 0]",/sounds/legit/right70.wav,,,,,5,2,177,13,,,,,,,,,,,,,,,left,4.19371390343,,,,,participant11,27,59.873723279,M,trial,2017_May_28_1348,
,,0.36,"[-4.5, 0]",/sounds/legit/left70.wav,,,,,5,3,178,27,,,,,,,,,,,,,,,left,2.82385993004,,,,,participant11,27,59.873723279,M,trial,2017_May_28_1348,
,,0.49,"[0, 0]",/sounds/legit/equal.wav,,,,,5,4,179,3,,,,,,,,,,,,,,,left,2.55704307556,,,,,participant11,27,59.873723279,M,trial,2017_May_28_1348,
,,0.36,"[2.25, 0]",/sounds/legit/right35.wav,,,,,5,5,180,7,,,,,,,,,,,,,,,left,2.47331380844,,,,,participant11,27,59.873723279,M,trial,2017_May_28_1348,
,,0.1,"[-4.5, 0]",/sounds/legit/left70.wav,,,,,5,6,181,25,,,,,,,,,,,,,,,left,0.703047037125,,,,,participant11,27,59.873723279,M,trial,2017_May_28_1348,
,,0.36,"[-6.75, 0]",/sounds/legit/left100.wav,,,,,5,7,182,32,,,,,,,,,,,,,,,left,0.568266153336,,,,,participant11,27,59.873723279,M,trial,2017_May_28_1348,
,,0.49,"[-2.25, 0]",/sounds/legit/left35.wav,,,,,5,8,183,23,,,,,,,,,,,,,,,left,1.08704400063,,,,,participant11,27,59.873723279,M,trial,2017_May_28_1348,
,,0.23,"[-2.25, 0]",/sounds/legit/left35.wav,,,,,5,9,184,21,,,,,,,,,,,,,,,left,0.920049905777,,,,,participant11,27,59.873723279,M,trial,2017_May_28_1348,
,,0.1,"[-2.25, 0]",/sounds/legit/left35.wav,,,,,5,10,185,20,,,,,,,,,,,,,,,left,6.06440401077,,,,,participant11,27,59.873723279,M,trial,2017_May_28_1348,
,,0.62,"[0, 0]",/sounds/legit/equal.wav,,,,,5,11,186,4,,,,,,,,,,,,,,,left,8.16895413399,,,,,participant11,27,59.873723279,M,trial,2017_May_28_1348,
,,0.62,"[-2.25, 0]",/sounds/legit/left35.wav,,,,,5,12,187,24,,,,,,,,,,,,,,,left,0.435517072678,,,,,participant11,27,59.873723279,M,trial,2017_May_28_1348,
,,0.1,"[2.25, 0]",/sounds/legit/right35.wav,,,,,5,13,188,5,,,,,,,,,,,,,,,right,1.83854985237,,,,,participant11,27,59.873723279,M,trial,2017_May_28_1348,
,,0.23,"[-4.5, 0]",/sounds/legit/left70.wav,,,,,5,14,189,26,,,,,,,,,,,,,,,left,0.38551402092,,,,,participant11,27,59.873723279,M,trial,2017_May_28_1348,
,,0.1,"[4.5, 0]",/sounds/legit/right70.wav,,,,,5,15,190,10,,,,,,,,,,,,,,,left,2.0389521122,,,,,participant11,27,59.873723279,M,trial,2017_May_28_1348,
,,0.62,"[-4.5, 0]",/sounds/legit/left70.wav,,,,,5,16,191,29,,,,,,,,,,,,,,,left,2.9077091217,,,,,participant11,27,59.873723279,M,trial,2017_May_28_1348,
,,0.1,"[0, 0]",/sounds/legit/equal.wav,,,,,5,17,192,0,,,,,,,,,,,,,,,left,0.452478885651,,,,,participant11,27,59.873723279,M,trial,2017_May_28_1348,
,,0.36,"[4.5, 0]",/sounds/legit/right70.wav,,,,,5,18,193,12,,,,,,,,,,,,,,,left,1.40332198143,,,,,participant11,27,59.873723279,M,trial,2017_May_28_1348,
,,0.23,"[0, 0]",/sounds/legit/equal.wav,,,,,5,19,194,1,,,,,,,,,,,,,,,left,1.65514993668,,,,,participant11,27,59.873723279,M,trial,2017_May_28_1348,
,,0.62,"[4.5, 0]",/sounds/legit/right70.wav,,,,,5,20,195,14,,,,,,,,,,,,,,,right,0.669391155243,,,,,participant11,27,59.873723279,M,trial,2017_May_28_1348,
,,0.36,"[-2.25, 0]",/sounds/legit/left35.wav,,,,,5,21,196,22,,,,,,,,,,,,,,,left,0.753279924393,,,,,participant11,27,59.873723279,M,trial,2017_May_28_1348,
,,0.36,"[0, 0]",/sounds/legit/equal.wav,,,,,5,22,197,2,,,,,,,,,,,,,,,left,0.435545921326,,,,,participant11,27,59.873723279,M,trial,2017_May_28_1348,
,,0.49,"[2.25, 0]",/sounds/legit/right35.wav,,,,,5,23,198,8,,,,,,,,,,,,,,,left,0.63572883606,,,,,participant11,27,59.873723279,M,trial,2017_May_28_1348,
,,0.49,"[-6.75, 0]",/sounds/legit/left100.wav,,,,,5,24,199,33,,,,,,,,,,,,,,,left,0.502445220947,,,,,participant11,27,59.873723279,M,trial,2017_May_28_1348,
,,0.23,"[2.25, 0]",/sounds/legit/right35.wav,,,,,5,25,200,6,,,,,,,,,,,,,,,right,0.652724027634,,,,,participant11,27,59.873723279,M,trial,2017_May_28_1348,
,,0.1,"[6.75, 0]",/sounds/legit/right100.wav,,,,,5,26,201,15,,,,,,,,,,,,,,,right,1.18708300591,,,,,participant11,27,59.873723279,M,trial,2017_May_28_1348,
,,0.36,"[6.75, 0]",/sounds/legit/right100.wav,,,,,5,27,202,17,,,,,,,,,,,,,,,left,1.82181596756,,,,,participant11,27,59.873723279,M,trial,2017_May_28_1348,
,,0.62,"[6.75, 0]",/sounds/legit/right100.wav,,,,,5,28,203,19,,,,,,,,,,,,,,,left,0.886606931686,,,,,participant11,27,59.873723279,M,trial,2017_May_28_1348,
,,0.62,"[2.25, 0]",/sounds/legit/right35.wav,,,,,5,29,204,9,,,,,,,,,,,,,,,left,2.79052782059,,,,,participant11,27,59.873723279,M,trial,2017_May_28_1348,
,,0.23,"[6.75, 0]",/sounds/legit/right100.wav,,,,,5,30,205,16,,,,,,,,,,,,,,,right,0.936681032181,,,,,participant11,27,59.873723279,M,trial,2017_May_28_1348,
,,0.49,"[6.75, 0]",/sounds/legit/right100.wav,,,,,5,31,206,18,,,,,,,,,,,,,,,left,1.13691592216,,,,,participant11,27,59.873723279,M,trial,2017_May_28_1348,
,,0.23,"[4.5, 0]",/sounds/legit/right70.wav,,,,,5,32,207,11,,,,,,,,,,,,,,,left,1.70504689217,,,,,participant11,27,59.873723279,M,trial,2017_May_28_1348,
,,0.23,"[-6.75, 0]",/sounds/legit/left100.wav,,,,,5,33,208,31,,,,,,,,,,,,,,,left,1.07017087936,,,,,participant11,27,59.873723279,M,trial,2017_May_28_1348,
,,0.62,"[-6.75, 0]",/sounds/legit/left100.wav,,,,,5,34,209,34,,,,,,,,,,,,,,,left,0.385917186737,,,,,participant11,27,59.873723279,M,trial,2017_May_28_1348,
,,0.36,"[2.25, 0]",/sounds/legit/right35.wav,,,,,6,0,210,7,,,,,,,,,,,,,,,left,0.819951057434,,,,,participant11,27,59.873723279,M,trial,2017_May_28_1348,
,,0.1,"[-2.25, 0]",/sounds/legit/left35.wav,,,,,6,1,211,20,,,,,,,,,,,,,,,left,0.0847709178925,,,,,participant11,27,59.873723279,M,trial,2017_May_28_1348,
,,0.49,"[-6.75, 0]",/sounds/legit/left100.wav,,,,,6,2,212,33,,,,,,,,,,,,,,,left,0.452404022217,,,,,participant11,27,59.873723279,M,trial,2017_May_28_1348,
,,0.23,"[0, 0]",/sounds/legit/equal.wav,,,,,6,3,213,1,,,,,,,,,,,,,,,left,0.469051837921,,,,,participant11,27,59.873723279,M,trial,2017_May_28_1348,
,,0.1,"[-6.75, 0]",/sounds/legit/left100.wav,,,,,6,4,214,30,,,,,,,,,,,,,,,left,1.9221739769,,,,,participant11,27,59.873723279,M,trial,2017_May_28_1348,
,,0.23,"[6.75, 0]",/sounds/legit/right100.wav,,,,,6,5,215,16,,,,,,,,,,,,,,,left,0.584985017776,,,,,participant11,27,59.873723279,M,trial,2017_May_28_1348,
,,0.49,"[0, 0]",/sounds/legit/equal.wav,,,,,6,6,216,3,,,,,,,,,,,,,,,left,2.23884010315,,,,,participant11,27,59.873723279,M,trial,2017_May_28_1348,
,,0.49,"[6.75, 0]",/sounds/legit/right100.wav,,,,,6,7,217,18,,,,,,,,,,,,,,,right,0.585849046707,,,,,participant11,27,59.873723279,M,trial,2017_May_28_1348,
,,0.49,"[2.25, 0]",/sounds/legit/right35.wav,,,,,6,8,218,8,,,,,,,,,,,,,,,right,1.15400195122,,,,,participant11,27,59.873723279,M,trial,2017_May_28_1348,
,,0.36,"[-6.75, 0]",/sounds/legit/left100.wav,,,,,6,9,219,32,,,,,,,,,,,,,,,left,2.15585613251,,,,,participant11,27,59.873723279,M,trial,2017_May_28_1348,
,,0.49,"[4.5, 0]",/sounds/legit/right70.wav,,,,,6,10,220,13,,,,,,,,,,,,,,,left,0.686110973358,,,,,participant11,27,59.873723279,M,trial,2017_May_28_1348,
,,0.23,"[-2.25, 0]",/sounds/legit/left35.wav,,,,,6,11,221,21,,,,,,,,,,,,,,,left,1.38781118393,,,,,participant11,27,59.873723279,M,trial,2017_May_28_1348,
,,0.62,"[0, 0]",/sounds/legit/equal.wav,,,,,6,12,222,4,,,,,,,,,,,,,,,left,0.335449934006,,,,,participant11,27,59.873723279,M,trial,2017_May_28_1348,
,,0.62,"[6.75, 0]",/sounds/legit/right100.wav,,,,,6,13,223,19,,,,,,,,,,,,,,,left,0.402373790741,,,,,participant11,27,59.873723279,M,trial,2017_May_28_1348,
,,0.1,"[-4.5, 0]",/sounds/legit/left70.wav,,,,,6,14,224,25,,,,,,,,,,,,,,,left,0.986675977707,,,,,participant11,27,59.873723279,M,trial,2017_May_28_1348,
,,0.36,"[4.5, 0]",/sounds/legit/right70.wav,,,,,6,15,225,12,,,,,,,,,,,,,,,right,0.719674110413,,,,,participant11,27,59.873723279,M,trial,2017_May_28_1348,
,,0.62,"[4.5, 0]",/sounds/legit/right70.wav,,,,,6,16,226,14,,,,,,,,,,,,,,,right,0.46950006485,,,,,participant11,27,59.873723279,M,trial,2017_May_28_1348,
,,0.1,"[2.25, 0]",/sounds/legit/right35.wav,,,,,6,17,227,5,,,,,,,,,,,,,,,right,0.46901011467,,,,,participant11,27,59.873723279,M,trial,2017_May_28_1348,
,,0.49,"[-4.5, 0]",/sounds/legit/left70.wav,,,,,6,18,228,28,,,,,,,,,,,,,,,left,0.452074050903,,,,,participant11,27,59.873723279,M,trial,2017_May_28_1348,
,,0.1,"[6.75, 0]",/sounds/legit/right100.wav,,,,,6,19,229,15,,,,,,,,,,,,,,,right,0.418907165527,,,,,participant11,27,59.873723279,M,trial,2017_May_28_1348,
,,0.36,"[6.75, 0]",/sounds/legit/right100.wav,,,,,6,20,230,17,,,,,,,,,,,,,,,right,0.352349042892,,,,,participant11,27,59.873723279,M,trial,2017_May_28_1348,
,,0.62,"[-6.75, 0]",/sounds/legit/left100.wav,,,,,6,21,231,34,,,,,,,,,,,,,,,left,0.435486078262,,,,,participant11,27,59.873723279,M,trial,2017_May_28_1348,
,,0.62,"[2.25, 0]",/sounds/legit/right35.wav,,,,,6,22,232,9,,,,,,,,,,,,,,,left,8.51941585541,,,,,participant11,27,59.873723279,M,trial,2017_May_28_1348,
,,0.23,"[-6.75, 0]",/sounds/legit/left100.wav,,,,,6,23,233,31,,,,,,,,,,,,,,,left,0.0516049861908,,,,,participant11,27,59.873723279,M,trial,2017_May_28_1348,
,,0.1,"[0, 0]",/sounds/legit/equal.wav,,,,,6,24,234,0,,,,,,,,,,,,,,,left,1.52125501633,,,,,participant11,27,59.873723279,M,trial,2017_May_28_1348,
,,0.62,"[-2.25, 0]",/sounds/legit/left35.wav,,,,,6,25,235,24,,,,,,,,,,,,,,,left,0.33505487442,,,,,participant11,27,59.873723279,M,trial,2017_May_28_1348,
,,0.36,"[-4.5, 0]",/sounds/legit/left70.wav,,,,,6,26,236,27,,,,,,,,,,,,,,,left,0.601542949677,,,,,participant11,27,59.873723279,M,trial,2017_May_28_1348,
,,0.36,"[0, 0]",/sounds/legit/equal.wav,,,,,6,27,237,2,,,,,,,,,,,,,,,left,0.619139909744,,,,,participant11,27,59.873723279,M,trial,2017_May_28_1348,
,,0.62,"[-4.5, 0]",/sounds/legit/left70.wav,,,,,6,28,238,29,,,,,,,,,,,,,,,left,0.518893003464,,,,,participant11,27,59.873723279,M,trial,2017_May_28_1348,
,,0.36,"[-2.25, 0]",/sounds/legit/left35.wav,,,,,6,29,239,22,,,,,,,,,,,,,,,left,2.77412796021,,,,,participant11,27,59.873723279,M,trial,2017_May_28_1348,
,,0.49,"[-2.25, 0]",/sounds/legit/left35.wav,,,,,6,30,240,23,,,,,,,,,,,,,,,right,1.43763494492,,,,,participant11,27,59.873723279,M,trial,2017_May_28_1348,
,,0.23,"[-4.5, 0]",/sounds/legit/left70.wav,,,,,6,31,241,26,,,,,,,,,,,,,,,left,0.485641956329,,,,,participant11,27,59.873723279,M,trial,2017_May_28_1348,
,,0.1,"[4.5, 0]",/sounds/legit/right70.wav,,,,,6,32,242,10,,,,,,,,,,,,,,,right,0.435607910156,,,,,participant11,27,59.873723279,M,trial,2017_May_28_1348,
,,0.23,"[2.25, 0]",/sounds/legit/right35.wav,,,,,6,33,243,6,,,,,,,,,,,,,,,left,3.12483000755,,,,,participant11,27,59.873723279,M,trial,2017_May_28_1348,
,,0.23,"[4.5, 0]",/sounds/legit/right70.wav,,,,,6,34,244,11,,,,,,,,,,,,,,,right,0.61953496933,,,,,participant11,27,59.873723279,M,trial,2017_May_28_1348,
,,0.62,"[0, 0]",/sounds/legit/equal.wav,,,,,7,0,245,4,,,,,,,,,,,,,,,left,1.90534591675,,,,,participant11,27,59.873723279,M,trial,2017_May_28_1348,
,,0.36,"[4.5, 0]",/sounds/legit/right70.wav,,,,,7,1,246,12,,,,,,,,,,,,,,,left,0.736093997955,,,,,participant11,27,59.873723279,M,trial,2017_May_28_1348,
,,0.49,"[-4.5, 0]",/sounds/legit/left70.wav,,,,,7,2,247,28,,,,,,,,,,,,,,,left,0.702718019485,,,,,participant11,27,59.873723279,M,trial,2017_May_28_1348,
,,0.1,"[0, 0]",/sounds/legit/equal.wav,,,,,7,3,248,0,,,,,,,,,,,,,,,left,3.17382502556,,,,,participant11,27,59.873723279,M,trial,2017_May_28_1348,
,,0.36,"[2.25, 0]",/sounds/legit/right35.wav,,,,,7,4,249,7,,,,,,,,,,,,,,,right,0.418943881989,,,,,participant11,27,59.873723279,M,trial,2017_May_28_1348,
,,0.62,"[-4.5, 0]",/sounds/legit/left70.wav,,,,,7,5,250,29,,,,,,,,,,,,,,,right,0.55251288414,,,,,participant11,27,59.873723279,M,trial,2017_May_28_1348,
,,0.1,"[-4.5, 0]",/sounds/legit/left70.wav,,,,,7,6,251,25,,,,,,,,,,,,,,,left,0.401352882385,,,,,participant11,27,59.873723279,M,trial,2017_May_28_1348,
,,0.62,"[-2.25, 0]",/sounds/legit/left35.wav,,,,,7,7,252,24,,,,,,,,,,,,,,,left,0.586043119431,,,,,participant11,27,59.873723279,M,trial,2017_May_28_1348,
,,0.49,"[2.25, 0]",/sounds/legit/right35.wav,,,,,7,8,253,8,,,,,,,,,,,,,,,right,1.08703684807,,,,,participant11,27,59.873723279,M,trial,2017_May_28_1348,
,,0.36,"[-4.5, 0]",/sounds/legit/left70.wav,,,,,7,9,254,27,,,,,,,,,,,,,,,left,0.936725139618,,,,,participant11,27,59.873723279,M,trial,2017_May_28_1348,
,,0.1,"[-2.25, 0]",/sounds/legit/left35.wav,,,,,7,10,255,20,,,,,,,,,,,,,,,left,3.19144797325,,,,,participant11,27,59.873723279,M,trial,2017_May_28_1348,
,,0.62,"[4.5, 0]",/sounds/legit/right70.wav,,,,,7,11,256,14,,,,,,,,,,,,,,,left,1.87188315392,,,,,participant11,27,59.873723279,M,trial,2017_May_28_1348,
,,0.49,"[-2.25, 0]",/sounds/legit/left35.wav,,,,,7,12,257,23,,,,,,,,,,,,,,,left,0.669675111771,,,,,participant11,27,59.873723279,M,trial,2017_May_28_1348,
,,0.49,"[4.5, 0]",/sounds/legit/right70.wav,,,,,7,13,258,13,,,,,,,,,,,,,,,right,0.769581079483,,,,,participant11,27,59.873723279,M,trial,2017_May_28_1348,
,,0.23,"[6.75, 0]",/sounds/legit/right100.wav,,,,,7,14,259,16,,,,,,,,,,,,,,,right,1.02022695541,,,,,participant11,27,59.873723279,M,trial,2017_May_28_1348,
,,0.36,"[6.75, 0]",/sounds/legit/right100.wav,,,,,7,15,260,17,,,,,,,,,,,,,,,right,0.685865163803,,,,,participant11,27,59.873723279,M,trial,2017_May_28_1348,
,,0.23,"[-4.5, 0]",/sounds/legit/left70.wav,,,,,7,16,261,26,,,,,,,,,,,,,,,left,0.602488994598,,,,,participant11,27,59.873723279,M,trial,2017_May_28_1348,
,,0.1,"[2.25, 0]",/sounds/legit/right35.wav,,,,,7,17,262,5,,,,,,,,,,,,,,,right,0.352187871933,,,,,participant11,27,59.873723279,M,trial,2017_May_28_1348,
,,0.62,"[6.75, 0]",/sounds/legit/right100.wav,,,,,7,18,263,19,,,,,,,,,,,,,,,left,0.936444997787,,,,,participant11,27,59.873723279,M,trial,2017_May_28_1348,
,,0.49,"[6.75, 0]",/sounds/legit/right100.wav,,,,,7,19,264,18,,,,,,,,,,,,,,,left,0.853303909302,,,,,participant11,27,59.873723279,M,trial,2017_May_28_1348,
,,0.23,"[-6.75, 0]",/sounds/legit/left100.wav,,,,,7,20,265,31,,,,,,,,,,,,,,,left,1.02028203011,,,,,participant11,27,59.873723279,M,trial,2017_May_28_1348,
,,0.23,"[4.5, 0]",/sounds/legit/right70.wav,,,,,7,21,266,11,,,,,,,,,,,,,,,right,0.635830163956,,,,,participant11,27,59.873723279,M,trial,2017_May_28_1348,
,,0.1,"[-6.75, 0]",/sounds/legit/left100.wav,,,,,7,22,267,30,,,,,,,,,,,,,,,left,0.569117069244,,,,,participant11,27,59.873723279,M,trial,2017_May_28_1348,
,,0.62,"[-6.75, 0]",/sounds/legit/left100.wav,,,,,7,23,268,34,,,,,,,,,,,,,,,left,1.75519180298,,,,,participant11,27,59.873723279,M,trial,2017_May_28_1348,
,,0.1,"[4.5, 0]",/sounds/legit/right70.wav,,,,,7,24,269,10,,,,,,,,,,,,,,,right,0.986644029617,,,,,participant11,27,59.873723279,M,trial,2017_May_28_1348,
,,0.23,"[-2.25, 0]",/sounds/legit/left35.wav,,,,,7,25,270,21,,,,,,,,,,,,,,,left,1.25396800041,,,,,participant11,27,59.873723279,M,trial,2017_May_28_1348,
,,0.36,"[-6.75, 0]",/sounds/legit/left100.wav,,,,,7,26,271,32,,,,,,,,,,,,,,,left,3.85940909386,,,,,participant11,27,59.873723279,M,trial,2017_May_28_1348,
,,0.1,"[6.75, 0]",/sounds/legit/right100.wav,,,,,7,27,272,15,,,,,,,,,,,,,,,right,0.352829217911,,,,,participant11,27,59.873723279,M,trial,2017_May_28_1348,
,,0.23,"[2.25, 0]",/sounds/legit/right35.wav,,,,,7,28,273,6,,,,,,,,,,,,,,,right,0.385307073593,,,,,participant11,27,59.873723279,M,trial,2017_May_28_1348,
,,0.36,"[0, 0]",/sounds/legit/equal.wav,,,,,7,29,274,2,,,,,,,,,,,,,,,left,0.402265071869,,,,,participant11,27,59.873723279,M,trial,2017_May_28_1348,
,,0.23,"[0, 0]",/sounds/legit/equal.wav,,,,,7,30,275,1,,,,,,,,,,,,,,,left,0.369101047516,,,,,participant11,27,59.873723279,M,trial,2017_May_28_1348,
,,0.49,"[-6.75, 0]",/sounds/legit/left100.wav,,,,,7,31,276,33,,,,,,,,,,,,,,,left,0.419052124023,,,,,participant11,27,59.873723279,M,trial,2017_May_28_1348,
,,0.49,"[0, 0]",/sounds/legit/equal.wav,,,,,7,32,277,3,,,,,,,,,,,,,,,left,1.7049510479,,,,,participant11,27,59.873723279,M,trial,2017_May_28_1348,
,,0.36,"[-2.25, 0]",/sounds/legit/left35.wav,,,,,7,33,278,22,,,,,,,,,,,,,,,left,1.23728990555,,,,,participant11,27,59.873723279,M,trial,2017_May_28_1348,
,,0.62,"[2.25, 0]",/sounds/legit/right35.wav,,,,,7,34,279,9,,,,,,,,,,,,,,,left,1.50354194641,,,,,participant11,27,59.873723279,M,trial,2017_May_28_1348,
,,0.23,"[-4.5, 0]",/sounds/legit/left70.wav,,,,,8,0,280,26,,,,,,,,,,,,,,,left,0.418833017349,,,,,participant11,27,59.873723279,M,trial,2017_May_28_1348,
,,0.62,"[0, 0]",/sounds/legit/equal.wav,,,,,8,1,281,4,,,,,,,,,,,,,,,left,0.686208963394,,,,,participant11,27,59.873723279,M,trial,2017_May_28_1348,
,,0.36,"[0, 0]",/sounds/legit/equal.wav,,,,,8,2,282,2,,,,,,,,,,,,,,,left,1.78747296333,,,,,participant11,27,59.873723279,M,trial,2017_May_28_1348,
,,0.23,"[-6.75, 0]",/sounds/legit/left100.wav,,,,,8,3,283,31,,,,,,,,,,,,,,,left,0.352015018463,,,,,participant11,27,59.873723279,M,trial,2017_May_28_1348,
,,0.62,"[-2.25, 0]",/sounds/legit/left35.wav,,,,,8,4,284,24,,,,,,,,,,,,,,,left,0.602503061295,,,,,participant11,27,59.873723279,M,trial,2017_May_28_1348,
,,0.36,"[6.75, 0]",/sounds/legit/right100.wav,,,,,8,5,285,17,,,,,,,,,,,,,,,right,0.903013944626,,,,,participant11,27,59.873723279,M,trial,2017_May_28_1348,
,,0.1,"[-6.75, 0]",/sounds/legit/left100.wav,,,,,8,6,286,30,,,,,,,,,,,,,,,left,0.970160961151,,,,,participant11,27,59.873723279,M,trial,2017_May_28_1348,
,,0.1,"[2.25, 0]",/sounds/legit/right35.wav,,,,,8,7,287,5,,,,,,,,,,,,,,,right,0.636090040207,,,,,participant11,27,59.873723279,M,trial,2017_May_28_1348,
,,0.62,"[-6.75, 0]",/sounds/legit/left100.wav,,,,,8,8,288,34,,,,,,,,,,,,,,,left,1.9718940258,,,,,participant11,27,59.873723279,M,trial,2017_May_28_1348,
,,0.49,"[-2.25, 0]",/sounds/legit/left35.wav,,,,,8,9,289,23,,,,,,,,,,,,,,,left,0.80342912674,,,,,participant11,27,59.873723279,M,trial,2017_May_28_1348,
,,0.1,"[6.75, 0]",/sounds/legit/right100.wav,,,,,8,10,290,15,,,,,,,,,,,,,,,right,0.652710914612,,,,,participant11,27,59.873723279,M,trial,2017_May_28_1348,
,,0.62,"[4.5, 0]",/sounds/legit/right70.wav,,,,,8,11,291,14,,,,,,,,,,,,,,,right,0.368696928024,,,,,participant11,27,59.873723279,M,trial,2017_May_28_1348,
,,0.23,"[4.5, 0]",/sounds/legit/right70.wav,,,,,8,12,292,11,,,,,,,,,,,,,,,right,0.368613958359,,,,,participant11,27,59.873723279,M,trial,2017_May_28_1348,
,,0.23,"[0, 0]",/sounds/legit/equal.wav,,,,,8,13,293,1,,,,,,,,,,,,,,,left,0.636276960373,,,,,participant11,27,59.873723279,M,trial,2017_May_28_1348,
,,0.23,"[2.25, 0]",/sounds/legit/right35.wav,,,,,8,14,294,6,,,,,,,,,,,,,,,right,0.452296972275,,,,,participant11,27,59.873723279,M,trial,2017_May_28_1348,
,,0.49,"[-4.5, 0]",/sounds/legit/left70.wav,,,,,8,15,295,28,,,,,,,,,,,,,,,left,0.669301986694,,,,,participant11,27,59.873723279,M,trial,2017_May_28_1348,
,,0.1,"[4.5, 0]",/sounds/legit/right70.wav,,,,,8,16,296,10,,,,,,,,,,,,,,,right,0.318653106689,,,,,participant11,27,59.873723279,M,trial,2017_May_28_1348,
,,0.36,"[4.5, 0]",/sounds/legit/right70.wav,,,,,8,17,297,12,,,,,,,,,,,,,,,right,0.468929052353,,,,,participant11,27,59.873723279,M,trial,2017_May_28_1348,
,,0.36,"[-4.5, 0]",/sounds/legit/left70.wav,,,,,8,18,298,27,,,,,,,,,,,,,,,left,0.469077825546,,,,,participant11,27,59.873723279,M,trial,2017_May_28_1348,
,,0.49,"[6.75, 0]",/sounds/legit/right100.wav,,,,,8,19,299,18,,,,,,,,,,,,,,,left,0.803124904633,,,,,participant11,27,59.873723279,M,trial,2017_May_28_1348,
,,0.23,"[-2.25, 0]",/sounds/legit/left35.wav,,,,,8,20,300,21,,,,,,,,,,,,,,,left,1.10370802879,,,,,participant11,27,59.873723279,M,trial,2017_May_28_1348,
,,0.62,"[2.25, 0]",/sounds/legit/right35.wav,,,,,8,21,301,9,,,,,,,,,,,,,,,left,3.74267411232,,,,,participant11,27,59.873723279,M,trial,2017_May_28_1348,
,,0.49,"[2.25, 0]",/sounds/legit/right35.wav,,,,,8,22,302,8,,,,,,,,,,,,,,,right,0.919986009598,,,,,participant11,27,59.873723279,M,trial,2017_May_28_1348,
,,0.23,"[6.75, 0]",/sounds/legit/right100.wav,,,,,8,23,303,16,,,,,,,,,,,,,,,right,0.0182960033417,,,,,participant11,27,59.873723279,M,trial,2017_May_28_1348,
,,0.1,"[-4.5, 0]",/sounds/legit/left70.wav,,,,,8,24,304,25,,,,,,,,,,,,,,,left,0.385580062866,,,,,participant11,27,59.873723279,M,trial,2017_May_28_1348,
,,0.62,"[6.75, 0]",/sounds/legit/right100.wav,,,,,8,25,305,19,,,,,,,,,,,,,,,left,21.6141049862,,,,,participant11,27,59.873723279,M,trial,2017_May_28_1348,
,,0.36,"[-6.75, 0]",/sounds/legit/left100.wav,,,,,8,26,306,32,,,,,,,,,,,,,,,left,0.602468967438,,,,,participant11,27,59.873723279,M,trial,2017_May_28_1348,
,,0.49,"[-6.75, 0]",/sounds/legit/left100.wav,,,,,8,27,307,33,,,,,,,,,,,,,,,left,0.435885906219,,,,,participant11,27,59.873723279,M,trial,2017_May_28_1348,
,,0.1,"[-2.25, 0]",/sounds/legit/left35.wav,,,,,8,28,308,20,,,,,,,,,,,,,,,left,0.53596997261,,,,,participant11,27,59.873723279,M,trial,2017_May_28_1348,
,,0.36,"[2.25, 0]",/sounds/legit/right35.wav,,,,,8,29,309,7,,,,,,,,,,,,,,,right,0.419028043747,,,,,participant11,27,59.873723279,M,trial,2017_May_28_1348,
,,0.1,"[0, 0]",/sounds/legit/equal.wav,,,,,8,30,310,0,,,,,,,,,,,,,,,left,3.94330596924,,,,,participant11,27,59.873723279,M,trial,2017_May_28_1348,
,,0.36,"[-2.25, 0]",/sounds/legit/left35.wav,,,,,8,31,311,22,,,,,,,,,,,,,,,left,0.63587808609,,,,,participant11,27,59.873723279,M,trial,2017_May_28_1348,
,,0.62,"[-4.5, 0]",/sounds/legit/left70.wav,,,,,8,32,312,29,,,,,,,,,,,,,,,left,0.351999044418,,,,,participant11,27,59.873723279,M,trial,2017_May_28_1348,
,,0.49,"[0, 0]",/sounds/legit/equal.wav,,,,,8,33,313,3,,,,,,,,,,,,,,,left,0.769666910172,,,,,participant11,27,59.873723279,M,trial,2017_May_28_1348,
,,0.49,"[4.5, 0]",/sounds/legit/right70.wav,,,,,8,34,314,13,,,,,,,,,,,,,,,right,1.07030797005,,,,,participant11,27,59.873723279,M,trial,2017_May_28_1348,
,,0.23,"[2.25, 0]",/sounds/legit/right35.wav,,,,,9,0,315,6,,,,,,,,,,,,,,,right,0.585860013962,,,,,participant11,27,59.873723279,M,trial,2017_May_28_1348,
,,0.1,"[4.5, 0]",/sounds/legit/right70.wav,,,,,9,1,316,10,,,,,,,,,,,,,,,right,1.57131695747,,,,,participant11,27,59.873723279,M,trial,2017_May_28_1348,
,,0.1,"[0, 0]",/sounds/legit/equal.wav,,,,,9,2,317,0,,,,,,,,,,,,,,,left,1.9555850029,,,,,participant11,27,59.873723279,M,trial,2017_May_28_1348,
,,0.23,"[6.75, 0]",/sounds/legit/right100.wav,,,,,9,3,318,16,,,,,,,,,,,,,,,left,1.75526309013,,,,,participant11,27,59.873723279,M,trial,2017_May_28_1348,
,,0.62,"[-2.25, 0]",/sounds/legit/left35.wav,,,,,9,4,319,24,,,,,,,,,,,,,,,left,3.709015131,,,,,participant11,27,59.873723279,M,trial,2017_May_28_1348,
,,0.36,"[0, 0]",/sounds/legit/equal.wav,,,,,9,5,320,2,,,,,,,,,,,,,,,left,1.05364108086,,,,,participant11,27,59.873723279,M,trial,2017_May_28_1348,
,,0.36,"[-4.5, 0]",/sounds/legit/left70.wav,,,,,9,6,321,27,,,,,,,,,,,,,,,left,2.10582685471,,,,,participant11,27,59.873723279,M,trial,2017_May_28_1348,
,,0.36,"[-2.25, 0]",/sounds/legit/left35.wav,,,,,9,7,322,22,,,,,,,,,,,,,,,left,2.89072585106,,,,,participant11,27,59.873723279,M,trial,2017_May_28_1348,
,,0.23,"[4.5, 0]",/sounds/legit/right70.wav,,,,,9,8,323,11,,,,,,,,,,,,,,,left,5.64666295052,,,,,participant11,27,59.873723279,M,trial,2017_May_28_1348,
,,0.23,"[0, 0]",/sounds/legit/equal.wav,,,,,9,9,324,1,,,,,,,,,,,,,,,left,0.736242055893,,,,,participant11,27,59.873723279,M,trial,2017_May_28_1348,
,,0.49,"[6.75, 0]",/sounds/legit/right100.wav,,,,,9,10,325,18,,,,,,,,,,,,,,,right,0.769802093506,,,,,participant11,27,59.873723279,M,trial,2017_May_28_1348,
,,0.49,"[2.25, 0]",/sounds/legit/right35.wav,,,,,9,11,326,8,,,,,,,,,,,,,,,left,0.702805042267,,,,,participant11,27,59.873723279,M,trial,2017_May_28_1348,
,,0.62,"[-4.5, 0]",/sounds/legit/left70.wav,,,,,9,12,327,29,,,,,,,,,,,,,,,left,0.685889005661,,,,,participant11,27,59.873723279,M,trial,2017_May_28_1348,
,,0.36,"[6.75, 0]",/sounds/legit/right100.wav,,,,,9,13,328,17,,,,,,,,,,,,,,,right,0.619358062744,,,,,participant11,27,59.873723279,M,trial,2017_May_28_1348,
,,0.49,"[-4.5, 0]",/sounds/legit/left70.wav,,,,,9,14,329,28,,,,,,,,,,,,,,,left,0.552569150925,,,,,participant11,27,59.873723279,M,trial,2017_May_28_1348,
,,0.1,"[-6.75, 0]",/sounds/legit/left100.wav,,,,,9,15,330,30,,,,,,,,,,,,,,,left,0.569164991379,,,,,participant11,27,59.873723279,M,trial,2017_May_28_1348,
,,0.36,"[2.25, 0]",/sounds/legit/right35.wav,,,,,9,16,331,7,,,,,,,,,,,,,,,right,1.38763093948,,,,,participant11,27,59.873723279,M,trial,2017_May_28_1348,
,,0.62,"[0, 0]",/sounds/legit/equal.wav,,,,,9,17,332,4,,,,,,,,,,,,,,,left,0.686038970947,,,,,participant11,27,59.873723279,M,trial,2017_May_28_1348,
,,0.49,"[4.5, 0]",/sounds/legit/right70.wav,,,,,9,18,333,13,,,,,,,,,,,,,,,left,0.836798906326,,,,,participant11,27,59.873723279,M,trial,2017_May_28_1348,
,,0.1,"[-4.5, 0]",/sounds/legit/left70.wav,,,,,9,19,334,25,,,,,,,,,,,,,,,left,0.435424089432,,,,,participant11,27,59.873723279,M,trial,2017_May_28_1348,
,,0.62,"[-6.75, 0]",/sounds/legit/left100.wav,,,,,9,20,335,34,,,,,,,,,,,,,,,left,3.42549991608,,,,,participant11,27,59.873723279,M,trial,2017_May_28_1348,
,,0.62,"[4.5, 0]",/sounds/legit/right70.wav,,,,,9,21,336,14,,,,,,,,,,,,,,,left,2.27279806137,,,,,participant11,27,59.873723279,M,trial,2017_May_28_1348,
,,0.49,"[-2.25, 0]",/sounds/legit/left35.wav,,,,,9,22,337,23,,,,,,,,,,,,,,,left,11.3590838909,,,,,participant11,27,59.873723279,M,trial,2017_May_28_1348,
,,0.1,"[2.25, 0]",/sounds/legit/right35.wav,,,,,9,23,338,5,,,,,,,,,,,,,,,left,4.54449486732,,,,,participant11,27,59.873723279,M,trial,2017_May_28_1348,
,,0.23,"[-4.5, 0]",/sounds/legit/left70.wav,,,,,9,24,339,26,,,,,,,,,,,,,,,left,1.33732795715,,,,,participant11,27,59.873723279,M,trial,2017_May_28_1348,
,,0.1,"[6.75, 0]",/sounds/legit/right100.wav,,,,,9,25,340,15,,,,,,,,,,,,,,,right,0.402122020721,,,,,participant11,27,59.873723279,M,trial,2017_May_28_1348,
,,0.1,"[-2.25, 0]",/sounds/legit/left35.wav,,,,,9,26,341,20,,,,,,,,,,,,,,,left,0.435626029968,,,,,participant11,27,59.873723279,M,trial,2017_May_28_1348,
,,0.62,"[6.75, 0]",/sounds/legit/right100.wav,,,,,9,27,342,19,,,,,,,,,,,,,,,left,0.969877958298,,,,,participant11,27,59.873723279,M,trial,2017_May_28_1348,
,,0.36,"[-6.75, 0]",/sounds/legit/left100.wav,,,,,9,28,343,32,,,,,,,,,,,,,,,left,0.836376905441,,,,,participant11,27,59.873723279,M,trial,2017_May_28_1348,
,,0.49,"[0, 0]",/sounds/legit/equal.wav,,,,,9,29,344,3,,,,,,,,,,,,,,,left,0.402107000351,,,,,participant11,27,59.873723279,M,trial,2017_May_28_1348,
,,0.23,"[-2.25, 0]",/sounds/legit/left35.wav,,,,,9,30,345,21,,,,,,,,,,,,,,,left,0.502468109131,,,,,participant11,27,59.873723279,M,trial,2017_May_28_1348,
,,0.36,"[4.5, 0]",/sounds/legit/right70.wav,,,,,9,31,346,12,,,,,,,,,,,,,,,right,0.45238494873,,,,,participant11,27,59.873723279,M,trial,2017_May_28_1348,
,,0.62,"[2.25, 0]",/sounds/legit/right35.wav,,,,,9,32,347,9,,,,,,,,,,,,,,,left,0.586870908737,,,,,participant11,27,59.873723279,M,trial,2017_May_28_1348,
,,0.49,"[-6.75, 0]",/sounds/legit/left100.wav,,,,,9,33,348,33,,,,,,,,,,,,,,,left,0.786374092102,,,,,participant11,27,59.873723279,M,trial,2017_May_28_1348,
,,0.23,"[-6.75, 0]",/sounds/legit/left100.wav,,,,,9,34,349,31,,,,,,,,,,,,,,,left,0.185033798218,,,,,participant11,27,59.873723279,M,trial,2017_May_28_1348,
,,,,,,,,,,,,,,,,,,,,,,,,,,,,,space,36.2965869904,,,participant11,27,59.873723279,M,trial,2017_May_28_1348,
,,0.36,"[6.75, 0]",/sounds/legit/right100.wav,,,,,,,,,0,0,0,17,,,,,,,,,,,,,,,left,15.5511422157,participant11,27,59.873723279,M,trial,2017_May_28_1348,
,,0.23,"[6.75, 0]",/sounds/legit/right100.wav,,,,,,,,,0,1,1,16,,,,,,,,,,,,,,,right,7.71795892715,participant11,27,59.873723279,M,trial,2017_May_28_1348,
,,0.23,"[-2.25, 0]",/sounds/legit/left35.wav,,,,,,,,,0,2,2,21,,,,,,,,,,,,,,,left,0.736405849457,participant11,27,59.873723279,M,trial,2017_May_28_1348,
,,0.62,"[0, 0]",/sounds/legit/equal.wav,,,,,,,,,0,3,3,4,,,,,,,,,,,,,,,right,0.719397068024,participant11,27,59.873723279,M,trial,2017_May_28_1348,
,,0.23,"[4.5, 0]",/sounds/legit/right70.wav,,,,,,,,,0,4,4,11,,,,,,,,,,,,,,,right,0.636131048203,participant11,27,59.873723279,M,trial,2017_May_28_1348,
,,0.1,"[6.75, 0]",/sounds/legit/right100.wav,,,,,,,,,0,5,5,15,,,,,,,,,,,,,,,right,1.10373306274,participant11,27,59.873723279,M,trial,2017_May_28_1348,
,,0.62,"[-6.75, 0]",/sounds/legit/left100.wav,,,,,,,,,0,6,6,34,,,,,,,,,,,,,,,left,0.568685054779,participant11,27,59.873723279,M,trial,2017_May_28_1348,
,,0.1,"[0, 0]",/sounds/legit/equal.wav,,,,,,,,,0,7,7,0,,,,,,,,,,,,,,,right,0.786457061768,participant11,27,59.873723279,M,trial,2017_May_28_1348,
,,0.36,"[-6.75, 0]",/sounds/legit/left100.wav,,,,,,,,,0,8,8,32,,,,,,,,,,,,,,,left,2.40646696091,participant11,27,59.873723279,M,trial,2017_May_28_1348,
,,0.23,"[6.75, 0]",/sounds/legit/right100.wav,,,,,,,,,0,9,9,16,,,,,,,,,,,,,,,right,0.6690928936,participant11,27,59.873723279,M,trial,2017_May_28_1348,
,,0.23,"[0, 0]",/sounds/legit/equal.wav,,,,,,,,,0,10,10,1,,,,,,,,,,,,,,,left,0.669509887695,participant11,27,59.873723279,M,trial,2017_May_28_1348,
,,0.23,"[-2.25, 0]",/sounds/legit/left35.wav,,,,,,,,,0,11,11,21,,,,,,,,,,,,,,,left,0.569198846817,participant11,27,59.873723279,M,trial,2017_May_28_1348,
,,0.23,"[6.75, 0]",/sounds/legit/right100.wav,,,,,,,,,0,12,12,16,,,,,,,,,,,,,,,left,3.59258699417,participant11,27,59.873723279,M,trial,2017_May_28_1348,
,,0.62,"[0, 0]",/sounds/legit/equal.wav,,,,,,,,,0,13,13,4,,,,,,,,,,,,,,,left,2.67380619049,participant11,27,59.873723279,M,trial,2017_May_28_1348,
,,0.62,"[-2.25, 0]",/sounds/legit/left35.wav,,,,,,,,,0,14,14,24,,,,,,,,,,,,,,,left,0.736331939697,participant11,27,59.873723279,M,trial,2017_May_28_1348,
,,0.62,"[-6.75, 0]",/sounds/legit/left100.wav,,,,,,,,,0,15,15,34,,,,,,,,,,,,,,,left,1.02012395859,participant11,27,59.873723279,M,trial,2017_May_28_1348,
,,0.62,"[4.5, 0]",/sounds/legit/right70.wav,,,,,,,,,0,16,16,14,,,,,,,,,,,,,,,left,0.90328001976,participant11,27,59.873723279,M,trial,2017_May_28_1348,
,,0.62,"[4.5, 0]",/sounds/legit/right70.wav,,,,,,,,,0,17,17,14,,,,,,,,,,,,,,,left,0.786370992661,participant11,27,59.873723279,M,trial,2017_May_28_1348,
,,0.36,"[6.75, 0]",/sounds/legit/right100.wav,,,,,,,,,0,18,18,17,,,,,,,,,,,,,,,right,0.802853107452,participant11,27,59.873723279,M,trial,2017_May_28_1348,
,,0.36,"[-2.25, 0]",/sounds/legit/left35.wav,,,,,,,,,0,19,19,22,,,,,,,,,,,,,,,left,0.652710199356,participant11,27,59.873723279,M,trial,2017_May_28_1348,
,,0.49,"[0, 0]",/sounds/legit/equal.wav,,,,,,,,,0,20,20,3,,,,,,,,,,,,,,,left,0.485644817352,participant11,27,59.873723279,M,trial,2017_May_28_1348,
,,0.1,"[2.25, 0]",/sounds/legit/right35.wav,,,,,,,,,0,21,21,5,,,,,,,,,,,,,,,right,0.619283914566,participant11,27,59.873723279,M,trial,2017_May_28_1348,
,,0.1,"[2.25, 0]",/sounds/legit/right35.wav,,,,,,,,,0,22,22,5,,,,,,,,,,,,,,,left,0.837014913559,participant11,27,59.873723279,M,trial,2017_May_28_1348,
,,0.36,"[-6.75, 0]",/sounds/legit/left100.wav,,,,,,,,,0,23,23,32,,,,,,,,,,,,,,,left,0.870140075684,participant11,27,59.873723279,M,trial,2017_May_28_1348,
,,0.49,"[6.75, 0]",/sounds/legit/right100.wav,,,,,,,,,0,24,24,18,,,,,,,,,,,,,,,right,0.636010885239,participant11,27,59.873723279,M,trial,2017_May_28_1348,
,,0.49,"[4.5, 0]",/sounds/legit/right70.wav,,,,,,,,,0,25,25,13,,,,,,,,,,,,,,,right,0.719639062881,participant11,27,59.873723279,M,trial,2017_May_28_1348,
,,0.23,"[-2.25, 0]",/sounds/legit/left35.wav,,,,,,,,,0,26,26,21,,,,,,,,,,,,,,,left,0.686163902283,participant11,27,59.873723279,M,trial,2017_May_28_1348,
,,0.1,"[4.5, 0]",/sounds/legit/right70.wav,,,,,,,,,0,27,27,10,,,,,,,,,,,,,,,right,1.85538196564,participant11,27,59.873723279,M,trial,2017_May_28_1348,
,,0.1,"[2.25, 0]",/sounds/legit/right35.wav,,,,,,,,,0,28,28,5,,,,,,,,,,,,,,,left,5.73024296761,participant11,27,59.873723279,M,trial,2017_May_28_1348,
,,0.36,"[-4.5, 0]",/sounds/legit/left70.wav,,,,,,,,,0,29,29,27,,,,,,,,,,,,,,,left,1.10473299026,participant11,27,59.873723279,M,trial,2017_May_28_1348,
,,0.36,"[-2.25, 0]",/sounds/legit/left35.wav,,,,,,,,,0,30,30,22,,,,,,,,,,,,,,,left,1.82177305222,participant11,27,59.873723279,M,trial,2017_May_28_1348,
,,0.62,"[-4.5, 0]",/sounds/legit/left70.wav,,,,,,,,,0,31,31,29,,,,,,,,,,,,,,,left,1.38800907135,participant11,27,59.873723279,M,trial,2017_May_28_1348,
,,0.1,"[-6.75, 0]",/sounds/legit/left100.wav,,,,,,,,,0,32,32,30,,,,,,,,,,,,,,,left,0.635996818542,participant11,27,59.873723279,M,trial,2017_May_28_1348,
,,0.1,"[4.5, 0]",/sounds/legit/right70.wav,,,,,,,,,0,33,33,10,,,,,,,,,,,,,,,right,1.92240095139,participant11,27,59.873723279,M,trial,2017_May_28_1348,
,,0.1,"[6.75, 0]",/sounds/legit/right100.wav,,,,,,,,,0,34,34,15,,,,,,,,,,,,,,,right,0.385246038437,participant11,27,59.873723279,M,trial,2017_May_28_1348,
,,0.1,"[0, 0]",/sounds/legit/equal.wav,,,,,,,,,1,0,35,0,,,,,,,,,,,,,,,left,0.50214099884,participant11,27,59.873723279,M,trial,2017_May_28_1348,
,,0.1,"[-2.25, 0]",/sounds/legit/left35.wav,,,,,,,,,1,1,36,20,,,,,,,,,,,,,,,left,0.352150917053,participant11,27,59.873723279,M,trial,2017_May_28_1348,
,,0.23,"[-6.75, 0]",/sounds/legit/left100.wav,,,,,,,,,1,2,37,31,,,,,,,,,,,,,,,left,0.502166986465,participant11,27,59.873723279,M,trial,2017_May_28_1348,
,,0.62,"[0, 0]",/sounds/legit/equal.wav,,,,,,,,,1,3,38,4,,,,,,,,,,,,,,,left,1.03686285019,participant11,27,59.873723279,M,trial,2017_May_28_1348,
,,0.1,"[-2.25, 0]",/sounds/legit/left35.wav,,,,,,,,,1,4,39,20,,,,,,,,,,,,,,,left,0.452271938324,participant11,27,59.873723279,M,trial,2017_May_28_1348,
,,0.23,"[-4.5, 0]",/sounds/legit/left70.wav,,,,,,,,,1,5,40,26,,,,,,,,,,,,,,,left,0.419159889221,participant11,27,59.873723279,M,trial,2017_May_28_1348,
,,0.62,"[4.5, 0]",/sounds/legit/right70.wav,,,,,,,,,1,6,41,14,,,,,,,,,,,,,,,right,1.1035990715,participant11,27,59.873723279,M,trial,2017_May_28_1348,
,,0.49,"[0, 0]",/sounds/legit/equal.wav,,,,,,,,,1,7,42,3,,,,,,,,,,,,,,,left,0.468702077866,participant11,27,59.873723279,M,trial,2017_May_28_1348,
,,0.49,"[6.75, 0]",/sounds/legit/right100.wav,,,,,,,,,1,8,43,18,,,,,,,,,,,,,,,left,2.99113988876,participant11,27,59.873723279,M,trial,2017_May_28_1348,
,,0.23,"[2.25, 0]",/sounds/legit/right35.wav,,,,,,,,,1,9,44,6,,,,,,,,,,,,,,,right,0.435765981674,participant11,27,59.873723279,M,trial,2017_May_28_1348,
,,0.49,"[-6.75, 0]",/sounds/legit/left100.wav,,,,,,,,,1,10,45,33,,,,,,,,,,,,,,,left,2.45652079582,participant11,27,59.873723279,M,trial,2017_May_28_1348,
,,0.62,"[0, 0]",/sounds/legit/equal.wav,,,,,,,,,1,11,46,4,,,,,,,,,,,,,,,left,0.402221918106,participant11,27,59.873723279,M,trial,2017_May_28_1348,
,,0.49,"[-4.5, 0]",/sounds/legit/left70.wav,,,,,,,,,1,12,47,28,,,,,,,,,,,,,,,left,0.368942022324,participant11,27,59.873723279,M,trial,2017_May_28_1348,
,,0.49,"[-4.5, 0]",/sounds/legit/left70.wav,,,,,,,,,1,13,48,28,,,,,,,,,,,,,,,left,0.351999044418,participant11,27,59.873723279,M,trial,2017_May_28_1348,
,,0.23,"[-4.5, 0]",/sounds/legit/left70.wav,,,,,,,,,1,14,49,26,,,,,,,,,,,,,,,left,0.435433149338,participant11,27,59.873723279,M,trial,2017_May_28_1348,
,,0.23,"[2.25, 0]",/sounds/legit/right35.wav,,,,,,,,,1,15,50,6,,,,,,,,,,,,,,,right,0.352053880692,participant11,27,59.873723279,M,trial,2017_May_28_1348,
,,0.1,"[2.25, 0]",/sounds/legit/right35.wav,,,,,,,,,1,16,51,5,,,,,,,,,,,,,,,right,0.402270078659,participant11,27,59.873723279,M,trial,2017_May_28_1348,
,,0.36,"[4.5, 0]",/sounds/legit/right70.wav,,,,,,,,,1,17,52,12,,,,,,,,,,,,,,,right,0.302178859711,participant11,27,59.873723279,M,trial,2017_May_28_1348,
,,0.23,"[4.5, 0]",/sounds/legit/right70.wav,,,,,,,,,1,18,53,11,,,,,,,,,,,,,,,right,0.334586143494,participant11,27,59.873723279,M,trial,2017_May_28_1348,
,,0.36,"[0, 0]",/sounds/legit/equal.wav,,,,,,,,,1,19,54,2,,,,,,,,,,,,,,,left,0.485788106918,participant11,27,59.873723279,M,trial,2017_May_28_1348,
,,0.49,"[-2.25, 0]",/sounds/legit/left35.wav,,,,,,,,,1,20,55,23,,,,,,,,,,,,,,,left,0.435523986816,participant11,27,59.873723279,M,trial,2017_May_28_1348,
,,0.49,"[0, 0]",/sounds/legit/equal.wav,,,,,,,,,1,21,56,3,,,,,,,,,,,,,,,left,0.351999998093,participant11,27,59.873723279,M,trial,2017_May_28_1348,
,,0.23,"[-4.5, 0]",/sounds/legit/left70.wav,,,,,,,,,1,22,57,26,,,,,,,,,,,,,,,left,0.168278932571,participant11,27,59.873723279,M,trial,2017_May_28_1348,
,,0.36,"[2.25, 0]",/sounds/legit/right35.wav,,,,,,,,,1,23,58,7,,,,,,,,,,,,,,,right,0.469012022018,participant11,27,59.873723279,M,trial,2017_May_28_1348,
,,0.23,"[-6.75, 0]",/sounds/legit/left100.wav,,,,,,,,,1,24,59,31,,,,,,,,,,,,,,,left,0.268530130386,participant11,27,59.873723279,M,trial,2017_May_28_1348,
,,0.36,"[-2.25, 0]",/sounds/legit/left35.wav,,,,,,,,,1,25,60,22,,,,,,,,,,,,,,,left,0.252043962479,participant11,27,59.873723279,M,trial,2017_May_28_1348,
,,0.1,"[4.5, 0]",/sounds/legit/right70.wav,,,,,,,,,1,26,61,10,,,,,,,,,,,,,,,right,0.234841108322,participant11,27,59.873723279,M,trial,2017_May_28_1348,
,,0.23,"[6.75, 0]",/sounds/legit/right100.wav,,,,,,,,,1,27,62,16,,,,,,,,,,,,,,,right,0.18520116806,participant11,27,59.873723279,M,trial,2017_May_28_1348,
,,0.23,"[6.75, 0]",/sounds/legit/right100.wav,,,,,,,,,1,28,63,16,,,,,,,,,,,,,,,right,0.252038955688,participant11,27,59.873723279,M,trial,2017_May_28_1348,
,,0.1,"[-4.5, 0]",/sounds/legit/left70.wav,,,,,,,,,1,29,64,25,,,,,,,,,,,,,,,left,0.201615810394,participant11,27,59.873723279,M,trial,2017_May_28_1348,
,,0.36,"[2.25, 0]",/sounds/legit/right35.wav,,,,,,,,,1,30,65,7,,,,,,,,,,,,,,,right,0.452040910721,participant11,27,59.873723279,M,trial,2017_May_28_1348,
,,0.62,"[6.75, 0]",/sounds/legit/right100.wav,,,,,,,,,1,31,66,19,,,,,,,,,,,,,,,right,1.80522704124,participant11,27,59.873723279,M,trial,2017_May_28_1348,
,,0.23,"[-4.5, 0]",/sounds/legit/left70.wav,,,,,,,,,1,32,67,26,,,,,,,,,,,,,,,left,0.502178907394,participant11,27,59.873723279,M,trial,2017_May_28_1348,
,,0.49,"[-6.75, 0]",/sounds/legit/left100.wav,,,,,,,,,1,33,68,33,,,,,,,,,,,,,,,left,0.101632118225,participant11,27,59.873723279,M,trial,2017_May_28_1348,
,,0.23,"[2.25, 0]",/sounds/legit/right35.wav,,,,,,,,,1,34,69,6,,,,,,,,,,,,,,,right,0.368566989899,participant11,27,59.873723279,M,trial,2017_May_28_1348,
,,0.1,"[0, 0]",/sounds/legit/equal.wav,,,,,,,,,2,0,70,0,,,,,,,,,,,,,,,left,0.234236001968,participant11,27,59.873723279,M,trial,2017_May_28_1348,
,,0.36,"[-2.25, 0]",/sounds/legit/left35.wav,,,,,,,,,2,1,71,22,,,,,,,,,,,,,,,right,0.602830171585,participant11,27,59.873723279,M,trial,2017_May_28_1348,
,,0.49,"[6.75, 0]",/sounds/legit/right100.wav,,,,,,,,,2,2,72,18,,,,,,,,,,,,,,,right,0.168205976486,participant11,27,59.873723279,M,trial,2017_May_28_1348,
,,0.49,"[6.75, 0]",/sounds/legit/right100.wav,,,,,,,,,2,3,73,18,,,,,,,,,,,,,,,right,0.16841506958,participant11,27,59.873723279,M,trial,2017_May_28_1348,
,,0.23,"[-6.75, 0]",/sounds/legit/left100.wav,,,,,,,,,2,4,74,31,,,,,,,,,,,,,,,left,0.268676042557,participant11,27,59.873723279,M,trial,2017_May_28_1348,
,,0.49,"[4.5, 0]",/sounds/legit/right70.wav,,,,,,,,,2,5,75,13,,,,,,,,,,,,,,,left,0.502173900604,participant11,27,59.873723279,M,trial,2017_May_28_1348,
,,0.23,"[-2.25, 0]",/sounds/legit/left35.wav,,,,,,,,,2,6,76,21,,,,,,,,,,,,,,,left,0.368977069855,participant11,27,59.873723279,M,trial,2017_May_28_1348,
,,0.36,"[6.75, 0]",/sounds/legit/right100.wav,,,,,,,,,2,7,77,17,,,,,,,,,,,,,,,right,0.135103940964,participant11,27,59.873723279,M,trial,2017_May_28_1348,
,,0.1,"[4.5, 0]",/sounds/legit/right70.wav,,,,,,,,,2,8,78,10,,,,,,,,,,,,,,,right,0.218555927277,participant11,27,59.873723279,M,trial,2017_May_28_1348,
,,0.1,"[6.75, 0]",/sounds/legit/right100.wav,,,,,,,,,2,9,79,15,,,,,,,,,,,,,,,right,0.251992940903,participant11,27,59.873723279,M,trial,2017_May_28_1348,
,,0.36,"[-6.75, 0]",/sounds/legit/left100.wav,,,,,,,,,2,10,80,32,,,,,,,,,,,,,,,left,0.184981107712,participant11,27,59.873723279,M,trial,2017_May_28_1348,
,,0.23,"[4.5, 0]",/sounds/legit/right70.wav,,,,,,,,,2,11,81,11,,,,,,,,,,,,,,,right,0.185171842575,participant11,27,59.873723279,M,trial,2017_May_28_1348,
,,0.62,"[4.5, 0]",/sounds/legit/right70.wav,,,,,,,,,2,12,82,14,,,,,,,,,,,,,,,left,0.367985010147,participant11,27,59.873723279,M,trial,2017_May_28_1348,
,,0.62,"[6.75, 0]",/sounds/legit/right100.wav,,,,,,,,,2,13,83,19,,,,,,,,,,,,,,,left,0.268619060516,participant11,27,59.873723279,M,trial,2017_May_28_1348,
,,0.1,"[-4.5, 0]",/sounds/legit/left70.wav,,,,,,,,,2,14,84,25,,,,,,,,,,,,,,,left,0.201753139496,participant11,27,59.873723279,M,trial,2017_May_28_1348,
,,0.36,"[0, 0]",/sounds/legit/equal.wav,,,,,,,,,2,15,85,2,,,,,,,,,,,,,,,left,0.402146100998,participant11,27,59.873723279,M,trial,2017_May_28_1348,
,,0.49,"[-4.5, 0]",/sounds/legit/left70.wav,,,,,,,,,2,16,86,28,,,,,,,,,,,,,,,left,0.25222492218,participant11,27,59.873723279,M,trial,2017_May_28_1348,
,,0.1,"[4.5, 0]",/sounds/legit/right70.wav,,,,,,,,,2,17,87,10,,,,,,,,,,,,,,,right,0.36909198761,participant11,27,59.873723279,M,trial,2017_May_28_1348,
,,0.36,"[2.25, 0]",/sounds/legit/right35.wav,,,,,,,,,2,18,88,7,,,,,,,,,,,,,,,left,0.484649896622,participant11,27,59.873723279,M,trial,2017_May_28_1348,
,,0.62,"[0, 0]",/sounds/legit/equal.wav,,,,,,,,,2,19,89,4,,,,,,,,,,,,,,,left,0.318754196167,participant11,27,59.873723279,M,trial,2017_May_28_1348,
,,0.49,"[0, 0]",/sounds/legit/equal.wav,,,,,,,,,2,20,90,3,,,,,,,,,,,,,,,left,0.335430860519,participant11,27,59.873723279,M,trial,2017_May_28_1348,
,,0.62,"[2.25, 0]",/sounds/legit/right35.wav,,,,,,,,,2,21,91,9,,,,,,,,,,,,,,,left,0.368494987488,participant11,27,59.873723279,M,trial,2017_May_28_1348,
,,0.36,"[4.5, 0]",/sounds/legit/right70.wav,,,,,,,,,2,22,92,12,,,,,,,,,,,,,,,right,0.186027050018,participant11,27,59.873723279,M,trial,2017_May_28_1348,
,,0.49,"[-2.25, 0]",/sounds/legit/left35.wav,,,,,,,,,2,23,93,23,,,,,,,,,,,,,,,left,0.267563819885,participant11,27,59.873723279,M,trial,2017_May_28_1348,
,,0.49,"[2.25, 0]",/sounds/legit/right35.wav,,,,,,,,,2,24,94,8,,,,,,,,,,,,,,,right,0.35214805603,participant11,27,59.873723279,M,trial,2017_May_28_1348,
,,0.36,"[4.5, 0]",/sounds/legit/right70.wav,,,,,,,,,2,25,95,12,,,,,,,,,,,,,,,right,0.402258872986,participant11,27,59.873723279,M,trial,2017_May_28_1348,
,,0.49,"[-6.75, 0]",/sounds/legit/left100.wav,,,,,,,,,2,26,96,33,,,,,,,,,,,,,,,left,0.218358039856,participant11,27,59.873723279,M,trial,2017_May_28_1348,
,,0.36,"[4.5, 0]",/sounds/legit/right70.wav,,,,,,,,,2,27,97,12,,,,,,,,,,,,,,,right,0.201544046402,participant11,27,59.873723279,M,trial,2017_May_28_1348,
,,0.49,"[2.25, 0]",/sounds/legit/right35.wav,,,,,,,,,2,28,98,8,,,,,,,,,,,,,,,left,0.886271953583,participant11,27,59.873723279,M,trial,2017_May_28_1348,
,,0.1,"[-2.25, 0]",/sounds/legit/left35.wav,,,,,,,,,2,29,99,20,,,,,,,,,,,,,,,left,1.57149910927,participant11,27,59.873723279,M,trial,2017_May_28_1348,
,,0.62,"[4.5, 0]",/sounds/legit/right70.wav,,,,,,,,,2,30,100,14,,,,,,,,,,,,,,,left,0.48579788208,participant11,27,59.873723279,M,trial,2017_May_28_1348,
,,0.36,"[-2.25, 0]",/sounds/legit/left35.wav,,,,,,,,,2,31,101,22,,,,,,,,,,,,,,,left,0.569295883179,participant11,27,59.873723279,M,trial,2017_May_28_1348,
,,0.23,"[-2.25, 0]",/sounds/legit/left35.wav,,,,,,,,,2,32,102,21,,,,,,,,,,,,,,,right,0.452392816544,participant11,27,59.873723279,M,trial,2017_May_28_1348,
,,0.62,"[0, 0]",/sounds/legit/equal.wav,,,,,,,,,2,33,103,4,,,,,,,,,,,,,,,left,0.652518987656,participant11,27,59.873723279,M,trial,2017_May_28_1348,
,,0.49,"[0, 0]",/sounds/legit/equal.wav,,,,,,,,,2,34,104,3,,,,,,,,,,,,,,,right,1.78866004944,participant11,27,59.873723279,M,trial,2017_May_28_1348,
,,0.49,"[-2.25, 0]",/sounds/legit/left35.wav,,,,,,,,,3,0,105,23,,,,,,,,,,,,,,,left,1.07024288177,participant11,27,59.873723279,M,trial,2017_May_28_1348,
,,0.49,"[-6.75, 0]",/sounds/legit/left100.wav,,,,,,,,,3,1,106,33,,,,,,,,,,,,,,,left,0.669106006622,participant11,27,59.873723279,M,trial,2017_May_28_1348,
,,0.1,"[-6.75, 0]",/sounds/legit/left100.wav,,,,,,,,,3,2,107,30,,,,,,,,,,,,,,,left,0.28538107872,participant11,27,59.873723279,M,trial,2017_May_28_1348,
,,0.1,"[0, 0]",/sounds/legit/equal.wav,,,,,,,,,3,3,108,0,,,,,,,,,,,,,,,right,0.268712043762,participant11,27,59.873723279,M,trial,2017_May_28_1348,
,,0.1,"[6.75, 0]",/sounds/legit/right100.wav,,,,,,,,,3,4,109,15,,,,,,,,,,,,,,,right,0.23513507843,participant11,27,59.873723279,M,trial,2017_May_28_1348,
,,0.23,"[4.5, 0]",/sounds/legit/right70.wav,,,,,,,,,3,5,110,11,,,,,,,,,,,,,,,right,0.285209178925,participant11,27,59.873723279,M,trial,2017_May_28_1348,
,,0.62,"[-4.5, 0]",/sounds/legit/left70.wav,,,,,,,,,3,6,111,29,,,,,,,,,,,,,,,left,0.752753019333,participant11,27,59.873723279,M,trial,2017_May_28_1348,
,,0.36,"[-6.75, 0]",/sounds/legit/left100.wav,,,,,,,,,3,7,112,32,,,,,,,,,,,,,,,left,0.452440023422,participant11,27,59.873723279,M,trial,2017_May_28_1348,
,,0.23,"[0, 0]",/sounds/legit/equal.wav,,,,,,,,,3,8,113,1,,,,,,,,,,,,,,,left,1.02050209045,participant11,27,59.873723279,M,trial,2017_May_28_1348,
,,0.1,"[-2.25, 0]",/sounds/legit/left35.wav,,,,,,,,,3,9,114,20,,,,,,,,,,,,,,,left,0.18517780304,participant11,27,59.873723279,M,trial,2017_May_28_1348,
,,0.62,"[-2.25, 0]",/sounds/legit/left35.wav,,,,,,,,,3,10,115,24,,,,,,,,,,,,,,,left,0.452399015427,participant11,27,59.873723279,M,trial,2017_May_28_1348,
,,0.62,"[2.25, 0]",/sounds/legit/right35.wav,,,,,,,,,3,11,116,9,,,,,,,,,,,,,,,left,0.452464103699,participant11,27,59.873723279,M,trial,2017_May_28_1348,
,,0.23,"[2.25, 0]",/sounds/legit/right35.wav,,,,,,,,,3,12,117,6,,,,,,,,,,,,,,,right,0.235183954239,participant11,27,59.873723279,M,trial,2017_May_28_1348,
,,0.36,"[-4.5, 0]",/sounds/legit/left70.wav,,,,,,,,,3,13,118,27,,,,,,,,,,,,,,,left,0.201740980148,participant11,27,59.873723279,M,trial,2017_May_28_1348,
,,0.62,"[-4.5, 0]",/sounds/legit/left70.wav,,,,,,,,,3,14,119,29,,,,,,,,,,,,,,,left,0.268629074097,participant11,27,59.873723279,M,trial,2017_May_28_1348,
,,0.36,"[0, 0]",/sounds/legit/equal.wav,,,,,,,,,3,15,120,2,,,,,,,,,,,,,,,right,0.502383947372,participant11,27,59.873723279,M,trial,2017_May_28_1348,
,,0.62,"[-6.75, 0]",/sounds/legit/left100.wav,,,,,,,,,3,16,121,34,,,,,,,,,,,,,,,left,0.268565893173,participant11,27,59.873723279,M,trial,2017_May_28_1348,
,,0.36,"[-6.75, 0]",/sounds/legit/left100.wav,,,,,,,,,3,17,122,32,,,,,,,,,,,,,,,left,0.569122076035,participant11,27,59.873723279,M,trial,2017_May_28_1348,
,,0.23,"[-4.5, 0]",/sounds/legit/left70.wav,,,,,,,,,3,18,123,26,,,,,,,,,,,,,,,left,0.218727111816,participant11,27,59.873723279,M,trial,2017_May_28_1348,
,,0.23,"[-4.5, 0]",/sounds/legit/left70.wav,,,,,,,,,3,19,124,26,,,,,,,,,,,,,,,left,0.184965133667,participant11,27,59.873723279,M,trial,2017_May_28_1348,
,,0.23,"[0, 0]",/sounds/legit/equal.wav,,,,,,,,,3,20,125,1,,,,,,,,,,,,,,,right,0.20180106163,participant11,27,59.873723279,M,trial,2017_May_28_1348,
,,0.36,"[-4.5, 0]",/sounds/legit/left70.wav,,,,,,,,,3,21,126,27,,,,,,,,,,,,,,,left,0.452110052109,participant11,27,59.873723279,M,trial,2017_May_28_1348,
,,0.49,"[-2.25, 0]",/sounds/legit/left35.wav,,,,,,,,,3,22,127,23,,,,,,,,,,,,,,,left,0.368957996368,participant11,27,59.873723279,M,trial,2017_May_28_1348,
,,0.49,"[4.5, 0]",/sounds/legit/right70.wav,,,,,,,,,3,23,128,13,,,,,,,,,,,,,,,right,0.318571090698,participant11,27,59.873723279,M,trial,2017_May_28_1348,
,,0.36,"[0, 0]",/sounds/legit/equal.wav,,,,,,,,,3,24,129,2,,,,,,,,,,,,,,,right,0.385488033295,participant11,27,59.873723279,M,trial,2017_May_28_1348,
,,0.62,"[2.25, 0]",/sounds/legit/right35.wav,,,,,,,,,3,25,130,9,,,,,,,,,,,,,,,right,0.252006053925,participant11,27,59.873723279,M,trial,2017_May_28_1348,
,,0.62,"[0, 0]",/sounds/legit/equal.wav,,,,,,,,,3,26,131,4,,,,,,,,,,,,,,,left,1.22069811821,participant11,27,59.873723279,M,trial,2017_May_28_1348,
,,0.23,"[-6.75, 0]",/sounds/legit/left100.wav,,,,,,,,,3,27,132,31,,,,,,,,,,,,,,,left,0.268491029739,participant11,27,59.873723279,M,trial,2017_May_28_1348,
,,0.49,"[6.75, 0]",/sounds/legit/right100.wav,,,,,,,,,3,28,133,18,,,,,,,,,,,,,,,right,0.552545070648,participant11,27,59.873723279,M,trial,2017_May_28_1348,
,,0.23,"[4.5, 0]",/sounds/legit/right70.wav,,,,,,,,,3,29,134,11,,,,,,,,,,,,,,,right,0.401739120483,participant11,27,59.873723279,M,trial,2017_May_28_1348,
,,0.49,"[-6.75, 0]",/sounds/legit/left100.wav,,,,,,,,,3,30,135,33,,,,,,,,,,,,,,,left,0.519010066986,participant11,27,59.873723279,M,trial,2017_May_28_1348,
,,0.1,"[2.25, 0]",/sounds/legit/right35.wav,,,,,,,,,3,31,136,5,,,,,,,,,,,,,,,right,0.28545498848,participant11,27,59.873723279,M,trial,2017_May_28_1348,
,,0.49,"[4.5, 0]",/sounds/legit/right70.wav,,,,,,,,,3,32,137,13,,,,,,,,,,,,,,,right,0.318431854248,participant11,27,59.873723279,M,trial,2017_May_28_1348,
,,0.1,"[0, 0]",/sounds/legit/equal.wav,,,,,,,,,3,33,138,0,,,,,,,,,,,,,,,right,0.268774032593,participant11,27,59.873723279,M,trial,2017_May_28_1348,
,,0.36,"[6.75, 0]",/sounds/legit/right100.wav,,,,,,,,,3,34,139,17,,,,,,,,,,,,,,,right,0.251877069473,participant11,27,59.873723279,M,trial,2017_May_28_1348,
,,0.49,"[-2.25, 0]",/sounds/legit/left35.wav,,,,,,,,,4,0,140,23,,,,,,,,,,,,,,,left,0.235397100449,participant11,27,59.873723279,M,trial,2017_May_28_1348,
,,0.36,"[0, 0]",/sounds/legit/equal.wav,,,,,,,,,4,1,141,2,,,,,,,,,,,,,,,right,0.301959037781,participant11,27,59.873723279,M,trial,2017_May_28_1348,
,,0.62,"[-6.75, 0]",/sounds/legit/left100.wav,,,,,,,,,4,2,142,34,,,,,,,,,,,,,,,left,0.184961080551,participant11,27,59.873723279,M,trial,2017_May_28_1348,
,,0.62,"[6.75, 0]",/sounds/legit/right100.wav,,,,,,,,,4,3,143,19,,,,,,,,,,,,,,,right,0.151598930359,participant11,27,59.873723279,M,trial,2017_May_28_1348,
,,0.62,"[2.25, 0]",/sounds/legit/right35.wav,,,,,,,,,4,4,144,9,,,,,,,,,,,,,,,left,2.65697383881,participant11,27,59.873723279,M,trial,2017_May_28_1348,
,,0.23,"[2.25, 0]",/sounds/legit/right35.wav,,,,,,,,,4,5,145,6,,,,,,,,,,,,,,,right,0.519294023514,participant11,27,59.873723279,M,trial,2017_May_28_1348,
,,0.23,"[4.5, 0]",/sounds/legit/right70.wav,,,,,,,,,4,6,146,11,,,,,,,,,,,,,,,right,0.285214185715,participant11,27,59.873723279,M,trial,2017_May_28_1348,
,,0.62,"[0, 0]",/sounds/legit/equal.wav,,,,,,,,,4,7,147,4,,,,,,,,,,,,,,,left,0.318490982056,participant11,27,59.873723279,M,trial,2017_May_28_1348,
,,0.36,"[-2.25, 0]",/sounds/legit/left35.wav,,,,,,,,,4,8,148,22,,,,,,,,,,,,,,,left,0.235121965408,participant11,27,59.873723279,M,trial,2017_May_28_1348,
,,0.1,"[2.25, 0]",/sounds/legit/right35.wav,,,,,,,,,4,9,149,5,,,,,,,,,,,,,,,right,0.217540025711,participant11,27,59.873723279,M,trial,2017_May_28_1348,
,,0.1,"[-2.25, 0]",/sounds/legit/left35.wav,,,,,,,,,4,10,150,20,,,,,,,,,,,,,,,left,0.285233974457,participant11,27,59.873723279,M,trial,2017_May_28_1348,
,,0.49,"[-2.25, 0]",/sounds/legit/left35.wav,,,,,,,,,4,11,151,23,,,,,,,,,,,,,,,left,0.301849126816,participant11,27,59.873723279,M,trial,2017_May_28_1348,
,,0.1,"[2.25, 0]",/sounds/legit/right35.wav,,,,,,,,,4,12,152,5,,,,,,,,,,,,,,,right,0.0679869651794,participant11,27,59.873723279,M,trial,2017_May_28_1348,
,,0.1,"[-4.5, 0]",/sounds/legit/left70.wav,,,,,,,,,4,13,153,25,,,,,,,,,,,,,,,left,0.28501200676,participant11,27,59.873723279,M,trial,2017_May_28_1348,
,,0.1,"[4.5, 0]",/sounds/legit/right70.wav,,,,,,,,,4,14,154,10,,,,,,,,,,,,,,,right,0.201824903488,participant11,27,59.873723279,M,trial,2017_May_28_1348,
,,0.36,"[-6.75, 0]",/sounds/legit/left100.wav,,,,,,,,,4,15,155,32,,,,,,,,,,,,,,,left,0.268653154373,participant11,27,59.873723279,M,trial,2017_May_28_1348,
,,0.23,"[0, 0]",/sounds/legit/equal.wav,,,,,,,,,4,16,156,1,,,,,,,,,,,,,,,left,0.301840782166,participant11,27,59.873723279,M,trial,2017_May_28_1348,
,,0.36,"[6.75, 0]",/sounds/legit/right100.wav,,,,,,,,,4,17,157,17,,,,,,,,,,,,,,,right,0.335462808609,participant11,27,59.873723279,M,trial,2017_May_28_1348,
,,0.36,"[-4.5, 0]",/sounds/legit/left70.wav,,,,,,,,,4,18,158,27,,,,,,,,,,,,,,,left,0.235277891159,participant11,27,59.873723279,M,trial,2017_May_28_1348,
,,0.62,"[-6.75, 0]",/sounds/legit/left100.wav,,,,,,,,,4,19,159,34,,,,,,,,,,,,,,,left,0.235227823257,participant11,27,59.873723279,M,trial,2017_May_28_1348,
,,0.62,"[2.25, 0]",/sounds/legit/right35.wav,,,,,,,,,4,20,160,9,,,,,,,,,,,,,,,left,0.385505914688,participant11,27,59.873723279,M,trial,2017_May_28_1348,
,,0.62,"[-2.25, 0]",/sounds/legit/left35.wav,,,,,,,,,4,21,161,24,,,,,,,,,,,,,,,left,0.635648965836,participant11,27,59.873723279,M,trial,2017_May_28_1348,
,,0.49,"[6.75, 0]",/sounds/legit/right100.wav,,,,,,,,,4,22,162,18,,,,,,,,,,,,,,,right,0.435568094254,participant11,27,59.873723279,M,trial,2017_May_28_1348,
,,0.62,"[-6.75, 0]",/sounds/legit/left100.wav,,,,,,,,,4,23,163,34,,,,,,,,,,,,,,,left,0.51923084259,participant11,27,59.873723279,M,trial,2017_May_28_1348,
,,0.36,"[2.25, 0]",/sounds/legit/right35.wav,,,,,,,,,4,24,164,7,,,,,,,,,,,,,,,left,4.49409794807,participant11,27,59.873723279,M,trial,2017_May_28_1348,
,,0.1,"[6.75, 0]",/sounds/legit/right100.wav,,,,,,,,,4,25,165,15,,,,,,,,,,,,,,,right,0.302007198334,participant11,27,59.873723279,M,trial,2017_May_28_1348,
,,0.62,"[4.5, 0]",/sounds/legit/right70.wav,,,,,,,,,4,26,166,14,,,,,,,,,,,,,,,left,0.33550286293,participant11,27,59.873723279,M,trial,2017_May_28_1348,
,,0.49,"[-2.25, 0]",/sounds/legit/left35.wav,,,,,,,,,4,27,167,23,,,,,,,,,,,,,,,left,0.285332918167,participant11,27,59.873723279,M,trial,2017_May_28_1348,
,,0.36,"[2.25, 0]",/sounds/legit/right35.wav,,,,,,,,,4,28,168,7,,,,,,,,,,,,,,,right,0.535971879959,participant11,27,59.873723279,M,trial,2017_May_28_1348,
,,0.1,"[4.5, 0]",/sounds/legit/right70.wav,,,,,,,,,4,29,169,10,,,,,,,,,,,,,,,right,0.635971784592,participant11,27,59.873723279,M,trial,2017_May_28_1348,
,,0.62,"[2.25, 0]",/sounds/legit/right35.wav,,,,,,,,,4,30,170,9,,,,,,,,,,,,,,,left,0.201761960983,participant11,27,59.873723279,M,trial,2017_May_28_1348,
,,0.62,"[-4.5, 0]",/sounds/legit/left70.wav,,,,,,,,,4,31,171,29,,,,,,,,,,,,,,,left,0.252131938934,participant11,27,59.873723279,M,trial,2017_May_28_1348,
,,0.62,"[0, 0]",/sounds/legit/equal.wav,,,,,,,,,4,32,172,4,,,,,,,,,,,,,,,left,0.235086917877,participant11,27,59.873723279,M,trial,2017_May_28_1348,
,,0.36,"[6.75, 0]",/sounds/legit/right100.wav,,,,,,,,,4,33,173,17,,,,,,,,,,,,,,,right,0.134869813919,participant11,27,59.873723279,M,trial,2017_May_28_1348,
,,0.1,"[-4.5, 0]",/sounds/legit/left70.wav,,,,,,,,,4,34,174,25,,,,,,,,,,,,,,,left,0.318513870239,participant11,27,59.873723279,M,trial,2017_May_28_1348,
,,0.23,"[4.5, 0]",/sounds/legit/right70.wav,,,,,,,,,5,0,175,11,,,,,,,,,,,,,,,right,0.218199014664,participant11,27,59.873723279,M,trial,2017_May_28_1348,
,,0.62,"[-6.75, 0]",/sounds/legit/left100.wav,,,,,,,,,5,1,176,34,,,,,,,,,,,,,,,left,0.368790864944,participant11,27,59.873723279,M,trial,2017_May_28_1348,
,,0.62,"[6.75, 0]",/sounds/legit/right100.wav,,,,,,,,,5,2,177,19,,,,,,,,,,,,,,,right,0.803102970123,participant11,27,59.873723279,M,trial,2017_May_28_1348,
,,0.36,"[4.5, 0]",/sounds/legit/right70.wav,,,,,,,,,5,3,178,12,,,,,,,,,,,,,,,right,0.352084875107,participant11,27,59.873723279,M,trial,2017_May_28_1348,
,,0.23,"[-4.5, 0]",/sounds/legit/left70.wav,,,,,,,,,5,4,179,26,,,,,,,,,,,,,,,left,0.168498039246,participant11,27,59.873723279,M,trial,2017_May_28_1348,
,,0.62,"[2.25, 0]",/sounds/legit/right35.wav,,,,,,,,,5,5,180,9,,,,,,,,,,,,,,,left,1.77159190178,participant11,27,59.873723279,M,trial,2017_May_28_1348,
,,0.23,"[-2.25, 0]",/sounds/legit/left35.wav,,,,,,,,,5,6,181,21,,,,,,,,,,,,,,,left,0.234833955765,participant11,27,59.873723279,M,trial,2017_May_28_1348,
,,0.36,"[6.75, 0]",/sounds/legit/right100.wav,,,,,,,,,5,7,182,17,,,,,,,,,,,,,,,right,0.218349933624,participant11,27,59.873723279,M,trial,2017_May_28_1348,
,,0.49,"[2.25, 0]",/sounds/legit/right35.wav,,,,,,,,,5,8,183,8,,,,,,,,,,,,,,,right,0.602383852005,participant11,27,59.873723279,M,trial,2017_May_28_1348,
,,0.36,"[2.25, 0]",/sounds/legit/right35.wav,,,,,,,,,5,9,184,7,,,,,,,,,,,,,,,right,0.201757907867,participant11,27,59.873723279,M,trial,2017_May_28_1348,
,,0.1,"[-6.75, 0]",/sounds/legit/left100.wav,,,,,,,,,5,10,185,30,,,,,,,,,,,,,,,left,0.235360860825,participant11,27,59.873723279,M,trial,2017_May_28_1348,
,,0.49,"[4.5, 0]",/sounds/legit/right70.wav,,,,,,,,,5,11,186,13,,,,,,,,,,,,,,,right,0.268642902374,participant11,27,59.873723279,M,trial,2017_May_28_1348,
,,0.36,"[2.25, 0]",/sounds/legit/right35.wav,,,,,,,,,5,12,187,7,,,,,,,,,,,,,,,right,0.753044128418,participant11,27,59.873723279,M,trial,2017_May_28_1348,
,,0.62,"[4.5, 0]",/sounds/legit/right70.wav,,,,,,,,,5,13,188,14,,,,,,,,,,,,,,,left,0.251757144928,participant11,27,59.873723279,M,trial,2017_May_28_1348,
,,0.49,"[6.75, 0]",/sounds/legit/right100.wav,,,,,,,,,5,14,189,18,,,,,,,,,,,,,,,left,0.301793813705,participant11,27,59.873723279,M,trial,2017_May_28_1348,
,,0.23,"[-2.25, 0]",/sounds/legit/left35.wav,,,,,,,,,5,15,190,21,,,,,,,,,,,,,,,left,0.23650598526,participant11,27,59.873723279,M,trial,2017_May_28_1348,
,,0.36,"[2.25, 0]",/sounds/legit/right35.wav,,,,,,,,,5,16,191,7,,,,,,,,,,,,,,,right,0.268430948257,participant11,27,59.873723279,M,trial,2017_May_28_1348,
,,0.23,"[4.5, 0]",/sounds/legit/right70.wav,,,,,,,,,5,17,192,11,,,,,,,,,,,,,,,right,0.235356807709,participant11,27,59.873723279,M,trial,2017_May_28_1348,
,,0.1,"[0, 0]",/sounds/legit/equal.wav,,,,,,,,,5,18,193,0,,,,,,,,,,,,,,,right,0.369007825851,participant11,27,59.873723279,M,trial,2017_May_28_1348,
,,0.36,"[-6.75, 0]",/sounds/legit/left100.wav,,,,,,,,,5,19,194,32,,,,,,,,,,,,,,,left,0.251734018326,participant11,27,59.873723279,M,trial,2017_May_28_1348,
,,0.1,"[-2.25, 0]",/sounds/legit/left35.wav,,,,,,,,,5,20,195,20,,,,,,,,,,,,,,,left,0.0679340362549,participant11,27,59.873723279,M,trial,2017_May_28_1348,
,,0.23,"[0, 0]",/sounds/legit/equal.wav,,,,,,,,,5,21,196,1,,,,,,,,,,,,,,,left,0.569466114044,participant11,27,59.873723279,M,trial,2017_May_28_1348,
,,0.1,"[-4.5, 0]",/sounds/legit/left70.wav,,,,,,,,,5,22,197,25,,,,,,,,,,,,,,,left,2.25619292259,participant11,27,59.873723279,M,trial,2017_May_28_1348,
,,0.36,"[-4.5, 0]",/sounds/legit/left70.wav,,,,,,,,,5,23,198,27,,,,,,,,,,,,,,,left,0.619395017624,participant11,27,59.873723279,M,trial,2017_May_28_1348,
,,0.49,"[-2.25, 0]",/sounds/legit/left35.wav,,,,,,,,,5,24,199,23,,,,,,,,,,,,,,,left,0.335483074188,participant11,27,59.873723279,M,trial,2017_May_28_1348,
,,0.49,"[4.5, 0]",/sounds/legit/right70.wav,,,,,,,,,5,25,200,13,,,,,,,,,,,,,,,right,0.351049900055,participant11,27,59.873723279,M,trial,2017_May_28_1348,
,,0.49,"[-4.5, 0]",/sounds/legit/left70.wav,,,,,,,,,5,26,201,28,,,,,,,,,,,,,,,left,0.368829011917,participant11,27,59.873723279,M,trial,2017_May_28_1348,
,,0.1,"[-2.25, 0]",/sounds/legit/left35.wav,,,,,,,,,5,27,202,20,,,,,,,,,,,,,,,left,0.318360090256,participant11,27,59.873723279,M,trial,2017_May_28_1348,
,,0.23,"[-2.25, 0]",/sounds/legit/left35.wav,,,,,,,,,5,28,203,21,,,,,,,,,,,,,,,left,1.25410890579,participant11,27,59.873723279,M,trial,2017_May_28_1348,
,,0.49,"[-2.25, 0]",/sounds/legit/left35.wav,,,,,,,,,5,29,204,23,,,,,,,,,,,,,,,left,15.4677920341,participant11,27,59.873723279,M,trial,2017_May_28_1348,
,,0.1,"[-4.5, 0]",/sounds/legit/left70.wav,,,,,,,,,5,30,205,25,,,,,,,,,,,,,,,left,0.235296964645,participant11,27,59.873723279,M,trial,2017_May_28_1348,
,,0.49,"[-2.25, 0]",/sounds/legit/left35.wav,,,,,,,,,5,31,206,23,,,,,,,,,,,,,,,left,1.0032851696,participant11,27,59.873723279,M,trial,2017_May_28_1348,
,,0.23,"[-6.75, 0]",/sounds/legit/left100.wav,,,,,,,,,5,32,207,31,,,,,,,,,,,,,,,left,0.201622009277,participant11,27,59.873723279,M,trial,2017_May_28_1348,
,,0.49,"[-4.5, 0]",/sounds/legit/left70.wav,,,,,,,,,5,33,208,28,,,,,,,,,,,,,,,left,0.285483837128,participant11,27,59.873723279,M,trial,2017_May_28_1348,
,,0.36,"[6.75, 0]",/sounds/legit/right100.wav,,,,,,,,,5,34,209,17,,,,,,,,,,,,,,,right,0.251732110977,participant11,27,59.873723279,M,trial,2017_May_28_1348,
,,0.62,"[-2.25, 0]",/sounds/legit/left35.wav,,,,,,,,,6,0,210,24,,,,,,,,,,,,,,,left,0.201667070389,participant11,27,59.873723279,M,trial,2017_May_28_1348,
,,0.1,"[6.75, 0]",/sounds/legit/right100.wav,,,,,,,,,6,1,211,15,,,,,,,,,,,,,,,right,0.251874923706,participant11,27,59.873723279,M,trial,2017_May_28_1348,
,,0.36,"[0, 0]",/sounds/legit/equal.wav,,,,,,,,,6,2,212,2,,,,,,,,,,,,,,,right,0.38560795784,participant11,27,59.873723279,M,trial,2017_May_28_1348,
,,0.49,"[2.25, 0]",/sounds/legit/right35.wav,,,,,,,,,6,3,213,8,,,,,,,,,,,,,,,right,0.251274824142,participant11,27,59.873723279,M,trial,2017_May_28_1348,
,,0.49,"[2.25, 0]",/sounds/legit/right35.wav,,,,,,,,,6,4,214,8,,,,,,,,,,,,,,,right,0.33527803421,participant11,27,59.873723279,M,trial,2017_May_28_1348,
,,0.62,"[6.75, 0]",/sounds/legit/right100.wav,,,,,,,,,6,5,215,19,,,,,,,,,,,,,,,right,0.168595075607,participant11,27,59.873723279,M,trial,2017_May_28_1348,
,,0.62,"[6.75, 0]",/sounds/legit/right100.wav,,,,,,,,,6,6,216,19,,,,,,,,,,,,,,,left,0.619297981262,participant11,27,59.873723279,M,trial,2017_May_28_1348,
,,0.1,"[4.5, 0]",/sounds/legit/right70.wav,,,,,,,,,6,7,217,10,,,,,,,,,,,,,,,right,0.318805932999,participant11,27,59.873723279,M,trial,2017_May_28_1348,
,,0.49,"[-6.75, 0]",/sounds/legit/left100.wav,,,,,,,,,6,8,218,33,,,,,,,,,,,,,,,left,0.836127996445,participant11,27,59.873723279,M,trial,2017_May_28_1348,
,,0.36,"[6.75, 0]",/sounds/legit/right100.wav,,,,,,,,,6,9,219,17,,,,,,,,,,,,,,,right,0.218612909317,participant11,27,59.873723279,M,trial,2017_May_28_1348,
,,0.49,"[4.5, 0]",/sounds/legit/right70.wav,,,,,,,,,6,10,220,13,,,,,,,,,,,,,,,left,0.418798923492,participant11,27,59.873723279,M,trial,2017_May_28_1348,
,,0.1,"[-6.75, 0]",/sounds/legit/left100.wav,,,,,,,,,6,11,221,30,,,,,,,,,,,,,,,left,0.285320997238,participant11,27,59.873723279,M,trial,2017_May_28_1348,
,,0.36,"[-4.5, 0]",/sounds/legit/left70.wav,,,,,,,,,6,12,222,27,,,,,,,,,,,,,,,left,0.285248994827,participant11,27,59.873723279,M,trial,2017_May_28_1348,
,,0.49,"[0, 0]",/sounds/legit/equal.wav,,,,,,,,,6,13,223,3,,,,,,,,,,,,,,,right,0.335454940796,participant11,27,59.873723279,M,trial,2017_May_28_1348,
,,0.49,"[-4.5, 0]",/sounds/legit/left70.wav,,,,,,,,,6,14,224,28,,,,,,,,,,,,,,,left,0.302091121674,participant11,27,59.873723279,M,trial,2017_May_28_1348,
,,0.49,"[-4.5, 0]",/sounds/legit/left70.wav,,,,,,,,,6,15,225,28,,,,,,,,,,,,,,,left,0.485939025879,participant11,27,59.873723279,M,trial,2017_May_28_1348,
,,0.36,"[-4.5, 0]",/sounds/legit/left70.wav,,,,,,,,,6,16,226,27,,,,,,,,,,,,,,,left,0.368803024292,participant11,27,59.873723279,M,trial,2017_May_28_1348,
,,0.62,"[-6.75, 0]",/sounds/legit/left100.wav,,,,,,,,,6,17,227,34,,,,,,,,,,,,,,,left,0.185292959213,participant11,27,59.873723279,M,trial,2017_May_28_1348,
,,0.36,"[-6.75, 0]",/sounds/legit/left100.wav,,,,,,,,,6,18,228,32,,,,,,,,,,,,,,,left,0.285155057907,participant11,27,59.873723279,M,trial,2017_May_28_1348,
