path,name,noise,location,correspondingAudio,audiotrials.thisRepN,audiotrials.thisTrialN,audiotrials.thisN,audiotrials.thisIndex,visualTrials.thisRepN,visualTrials.thisTrialN,visualTrials.thisN,visualTrials.thisIndex,combinedTrials.thisRepN,combinedTrials.thisTrialN,combinedTrials.thisN,combinedTrials.thisIndex,WelcomeKey.keys,WelcomeKey.rt,key_resp_2.keys,key_resp_2.rt,AudioInstrAccept.keys,AudioInstrAccept.rt,LeftorRight.keys,LeftorRight.rt,VisualBlock.keys,VisualBlock.rt,VisualDecision.keys,VisualDecision.rt,CombinedAccept.keys,CombinedAccept.rt,CombComparisonResponse.keys,CombComparisonResponse.rt,participant,age,frameRate,sex,expName,date,
,,,,,,,,,,,,,,,,,space,80.8602640629,,,,,,,,,,,,,,,participant18,28,59.8715866105,M,trial,2017_May_29_1705,
,,,,,,,,,,,,,,,,,,,space,19.5936508179,,,,,,,,,,,,,participant18,28,59.8715866105,M,trial,2017_May_29_1705,
,,,,,,,,,,,,,,,,,,,,,space,13.4305369854,,,,,,,,,,,participant18,28,59.8715866105,M,trial,2017_May_29_1705,
/sounds/legit/left35.wav,left30,,,,0,0,0,2,,,,,,,,,,,,,,,left,1.79669880867,,,,,,,,,participant18,28,59.8715866105,M,trial,2017_May_29_1705,
/sounds/legit/right35.wav,right30,,,,0,1,1,3,,,,,,,,,,,,,,,left,5.6299059391,,,,,,,,,participant18,28,59.8715866105,M,trial,2017_May_29_1705,
/sounds/legit/left100.wav,left100,,,,0,2,2,0,,,,,,,,,,,,,,,left,1.10373497009,,,,,,,,,participant18,28,59.8715866105,M,trial,2017_May_29_1705,
/sounds/legit/right100.wav,right100,,,,0,3,3,5,,,,,,,,,,,,,,,right,0.652607917786,,,,,,,,,participant18,28,59.8715866105,M,trial,2017_May_29_1705,
/sounds/legit/equal.wav,equal,,,,0,4,4,6,,,,,,,,,,,,,,,left,0.786175966263,,,,,,,,,participant18,28,59.8715866105,M,trial,2017_May_29_1705,
/sounds/legit/left70.wav,left60,,,,0,5,5,1,,,,,,,,,,,,,,,left,1.03682780266,,,,,,,,,participant18,28,59.8715866105,M,trial,2017_May_29_1705,
/sounds/legit/right70.wav,right60,,,,0,6,6,4,,,,,,,,,,,,,,,right,0.402147054672,,,,,,,,,participant18,28,59.8715866105,M,trial,2017_May_29_1705,
/sounds/legit/right100.wav,right100,,,,1,0,7,5,,,,,,,,,,,,,,,right,0.285084009171,,,,,,,,,participant18,28,59.8715866105,M,trial,2017_May_29_1705,
/sounds/legit/right70.wav,right60,,,,1,1,8,4,,,,,,,,,,,,,,,right,0.518831014633,,,,,,,,,participant18,28,59.8715866105,M,trial,2017_May_29_1705,
/sounds/legit/equal.wav,equal,,,,1,2,9,6,,,,,,,,,,,,,,,left,0.535759925842,,,,,,,,,participant18,28,59.8715866105,M,trial,2017_May_29_1705,
/sounds/legit/left100.wav,left100,,,,1,3,10,0,,,,,,,,,,,,,,,left,0.335582017899,,,,,,,,,participant18,28,59.8715866105,M,trial,2017_May_29_1705,
/sounds/legit/left35.wav,left30,,,,1,4,11,2,,,,,,,,,,,,,,,left,0.6026699543,,,,,,,,,participant18,28,59.8715866105,M,trial,2017_May_29_1705,
/sounds/legit/left70.wav,left60,,,,1,5,12,1,,,,,,,,,,,,,,,left,0.285238981247,,,,,,,,,participant18,28,59.8715866105,M,trial,2017_May_29_1705,
/sounds/legit/right35.wav,right30,,,,1,6,13,3,,,,,,,,,,,,,,,right,0.318803071976,,,,,,,,,participant18,28,59.8715866105,M,trial,2017_May_29_1705,
/sounds/legit/right70.wav,right60,,,,2,0,14,4,,,,,,,,,,,,,,,right,0.285377025604,,,,,,,,,participant18,28,59.8715866105,M,trial,2017_May_29_1705,
/sounds/legit/left70.wav,left60,,,,2,1,15,1,,,,,,,,,,,,,,,left,0.253103017807,,,,,,,,,participant18,28,59.8715866105,M,trial,2017_May_29_1705,
/sounds/legit/left35.wav,left30,,,,2,2,16,2,,,,,,,,,,,,,,,left,0.485730171204,,,,,,,,,participant18,28,59.8715866105,M,trial,2017_May_29_1705,
/sounds/legit/left100.wav,left100,,,,2,3,17,0,,,,,,,,,,,,,,,left,0.218479156494,,,,,,,,,participant18,28,59.8715866105,M,trial,2017_May_29_1705,
/sounds/legit/right35.wav,right30,,,,2,4,18,3,,,,,,,,,,,,,,,right,0.636223077774,,,,,,,,,participant18,28,59.8715866105,M,trial,2017_May_29_1705,
/sounds/legit/right100.wav,right100,,,,2,5,19,5,,,,,,,,,,,,,,,right,0.251643896103,,,,,,,,,participant18,28,59.8715866105,M,trial,2017_May_29_1705,
/sounds/legit/equal.wav,equal,,,,2,6,20,6,,,,,,,,,,,,,,,right,0.886474132538,,,,,,,,,participant18,28,59.8715866105,M,trial,2017_May_29_1705,
/sounds/legit/right100.wav,right100,,,,3,0,21,5,,,,,,,,,,,,,,,right,0.235181093216,,,,,,,,,participant18,28,59.8715866105,M,trial,2017_May_29_1705,
/sounds/legit/left100.wav,left100,,,,3,1,22,0,,,,,,,,,,,,,,,left,0.2350461483,,,,,,,,,participant18,28,59.8715866105,M,trial,2017_May_29_1705,
/sounds/legit/equal.wav,equal,,,,3,2,23,6,,,,,,,,,,,,,,,left,0.502562046051,,,,,,,,,participant18,28,59.8715866105,M,trial,2017_May_29_1705,
/sounds/legit/left35.wav,left30,,,,3,3,24,2,,,,,,,,,,,,,,,left,0.819836139679,,,,,,,,,participant18,28,59.8715866105,M,trial,2017_May_29_1705,
/sounds/legit/right35.wav,right30,,,,3,4,25,3,,,,,,,,,,,,,,,right,0.301801204681,,,,,,,,,participant18,28,59.8715866105,M,trial,2017_May_29_1705,
/sounds/legit/right70.wav,right60,,,,3,5,26,4,,,,,,,,,,,,,,,right,0.285325050354,,,,,,,,,participant18,28,59.8715866105,M,trial,2017_May_29_1705,
/sounds/legit/left70.wav,left60,,,,3,6,27,1,,,,,,,,,,,,,,,left,0.201623916626,,,,,,,,,participant18,28,59.8715866105,M,trial,2017_May_29_1705,
/sounds/legit/right35.wav,right30,,,,4,0,28,3,,,,,,,,,,,,,,,right,0.251673221588,,,,,,,,,participant18,28,59.8715866105,M,trial,2017_May_29_1705,
/sounds/legit/right100.wav,right100,,,,4,1,29,5,,,,,,,,,,,,,,,right,0.251909017563,,,,,,,,,participant18,28,59.8715866105,M,trial,2017_May_29_1705,
/sounds/legit/right70.wav,right60,,,,4,2,30,4,,,,,,,,,,,,,,,right,0.267636060715,,,,,,,,,participant18,28,59.8715866105,M,trial,2017_May_29_1705,
/sounds/legit/left35.wav,left30,,,,4,3,31,2,,,,,,,,,,,,,,,left,0.235078811646,,,,,,,,,participant18,28,59.8715866105,M,trial,2017_May_29_1705,
/sounds/legit/left70.wav,left60,,,,4,4,32,1,,,,,,,,,,,,,,,left,0.18482208252,,,,,,,,,participant18,28,59.8715866105,M,trial,2017_May_29_1705,
/sounds/legit/left100.wav,left100,,,,4,5,33,0,,,,,,,,,,,,,,,left,0.185145139694,,,,,,,,,participant18,28,59.8715866105,M,trial,2017_May_29_1705,
/sounds/legit/equal.wav,equal,,,,4,6,34,6,,,,,,,,,,,,,,,left,0.235024929047,,,,,,,,,participant18,28,59.8715866105,M,trial,2017_May_29_1705,
/sounds/legit/right100.wav,right100,,,,5,0,35,5,,,,,,,,,,,,,,,right,0.184937953949,,,,,,,,,participant18,28,59.8715866105,M,trial,2017_May_29_1705,
/sounds/legit/equal.wav,equal,,,,5,1,36,6,,,,,,,,,,,,,,,left,0.502589941025,,,,,,,,,participant18,28,59.8715866105,M,trial,2017_May_29_1705,
/sounds/legit/left70.wav,left60,,,,5,2,37,1,,,,,,,,,,,,,,,left,0.268481016159,,,,,,,,,participant18,28,59.8715866105,M,trial,2017_May_29_1705,
/sounds/legit/right35.wav,right30,,,,5,3,38,3,,,,,,,,,,,,,,,right,0.719233989716,,,,,,,,,participant18,28,59.8715866105,M,trial,2017_May_29_1705,
/sounds/legit/left100.wav,left100,,,,5,4,39,0,,,,,,,,,,,,,,,left,0.352087020874,,,,,,,,,participant18,28,59.8715866105,M,trial,2017_May_29_1705,
/sounds/legit/left35.wav,left30,,,,5,5,40,2,,,,,,,,,,,,,,,left,0.435533046722,,,,,,,,,participant18,28,59.8715866105,M,trial,2017_May_29_1705,
/sounds/legit/right70.wav,right60,,,,5,6,41,4,,,,,,,,,,,,,,,right,0.485630989075,,,,,,,,,participant18,28,59.8715866105,M,trial,2017_May_29_1705,
/sounds/legit/equal.wav,equal,,,,6,0,42,6,,,,,,,,,,,,,,,left,0.268500089645,,,,,,,,,participant18,28,59.8715866105,M,trial,2017_May_29_1705,
/sounds/legit/left70.wav,left60,,,,6,1,43,1,,,,,,,,,,,,,,,left,0.351838111877,,,,,,,,,participant18,28,59.8715866105,M,trial,2017_May_29_1705,
/sounds/legit/right35.wav,right30,,,,6,2,44,3,,,,,,,,,,,,,,,left,0.468903064728,,,,,,,,,participant18,28,59.8715866105,M,trial,2017_May_29_1705,
/sounds/legit/left100.wav,left100,,,,6,3,45,0,,,,,,,,,,,,,,,left,0.219779968262,,,,,,,,,participant18,28,59.8715866105,M,trial,2017_May_29_1705,
/sounds/legit/right100.wav,right100,,,,6,4,46,5,,,,,,,,,,,,,,,right,0.201551914215,,,,,,,,,participant18,28,59.8715866105,M,trial,2017_May_29_1705,
/sounds/legit/left35.wav,left30,,,,6,5,47,2,,,,,,,,,,,,,,,left,0.469007015228,,,,,,,,,participant18,28,59.8715866105,M,trial,2017_May_29_1705,
/sounds/legit/right70.wav,right60,,,,6,6,48,4,,,,,,,,,,,,,,,right,0.318814992905,,,,,,,,,participant18,28,59.8715866105,M,trial,2017_May_29_1705,
/sounds/legit/left35.wav,left30,,,,7,0,49,2,,,,,,,,,,,,,,,left,0.786484003067,,,,,,,,,participant18,28,59.8715866105,M,trial,2017_May_29_1705,
/sounds/legit/left70.wav,left60,,,,7,1,50,1,,,,,,,,,,,,,,,left,0.235065937042,,,,,,,,,participant18,28,59.8715866105,M,trial,2017_May_29_1705,
/sounds/legit/left100.wav,left100,,,,7,2,51,0,,,,,,,,,,,,,,,left,0.268408060074,,,,,,,,,participant18,28,59.8715866105,M,trial,2017_May_29_1705,
/sounds/legit/right70.wav,right60,,,,7,3,52,4,,,,,,,,,,,,,,,right,0.201569080353,,,,,,,,,participant18,28,59.8715866105,M,trial,2017_May_29_1705,
/sounds/legit/right35.wav,right30,,,,7,4,53,3,,,,,,,,,,,,,,,left,0.786495923996,,,,,,,,,participant18,28,59.8715866105,M,trial,2017_May_29_1705,
/sounds/legit/right100.wav,right100,,,,7,5,54,5,,,,,,,,,,,,,,,right,0.218357086182,,,,,,,,,participant18,28,59.8715866105,M,trial,2017_May_29_1705,
/sounds/legit/equal.wav,equal,,,,7,6,55,6,,,,,,,,,,,,,,,left,0.301872968674,,,,,,,,,participant18,28,59.8715866105,M,trial,2017_May_29_1705,
/sounds/legit/left35.wav,left30,,,,8,0,56,2,,,,,,,,,,,,,,,left,0.218465089798,,,,,,,,,participant18,28,59.8715866105,M,trial,2017_May_29_1705,
/sounds/legit/right35.wav,right30,,,,8,1,57,3,,,,,,,,,,,,,,,left,0.235141038895,,,,,,,,,participant18,28,59.8715866105,M,trial,2017_May_29_1705,
/sounds/legit/right100.wav,right100,,,,8,2,58,5,,,,,,,,,,,,,,,right,0.201761960983,,,,,,,,,participant18,28,59.8715866105,M,trial,2017_May_29_1705,
/sounds/legit/equal.wav,equal,,,,8,3,59,6,,,,,,,,,,,,,,,left,0.353404045105,,,,,,,,,participant18,28,59.8715866105,M,trial,2017_May_29_1705,
/sounds/legit/left70.wav,left60,,,,8,4,60,1,,,,,,,,,,,,,,,left,0.435829877853,,,,,,,,,participant18,28,59.8715866105,M,trial,2017_May_29_1705,
/sounds/legit/left100.wav,left100,,,,8,5,61,0,,,,,,,,,,,,,,,left,0.135001182556,,,,,,,,,participant18,28,59.8715866105,M,trial,2017_May_29_1705,
/sounds/legit/right70.wav,right60,,,,8,6,62,4,,,,,,,,,,,,,,,right,1.65472102165,,,,,,,,,participant18,28,59.8715866105,M,trial,2017_May_29_1705,
/sounds/legit/right35.wav,right30,,,,9,0,63,3,,,,,,,,,,,,,,,left,0.61919593811,,,,,,,,,participant18,28,59.8715866105,M,trial,2017_May_29_1705,
/sounds/legit/equal.wav,equal,,,,9,1,64,6,,,,,,,,,,,,,,,left,0.201632976532,,,,,,,,,participant18,28,59.8715866105,M,trial,2017_May_29_1705,
/sounds/legit/right70.wav,right60,,,,9,2,65,4,,,,,,,,,,,,,,,right,0.134986877441,,,,,,,,,participant18,28,59.8715866105,M,trial,2017_May_29_1705,
/sounds/legit/left100.wav,left100,,,,9,3,66,0,,,,,,,,,,,,,,,left,0.218436956406,,,,,,,,,participant18,28,59.8715866105,M,trial,2017_May_29_1705,
/sounds/legit/right100.wav,right100,,,,9,4,67,5,,,,,,,,,,,,,,,right,0.184870004654,,,,,,,,,participant18,28,59.8715866105,M,trial,2017_May_29_1705,
/sounds/legit/left70.wav,left60,,,,9,5,68,1,,,,,,,,,,,,,,,left,0.435636043549,,,,,,,,,participant18,28,59.8715866105,M,trial,2017_May_29_1705,
/sounds/legit/left35.wav,left30,,,,9,6,69,2,,,,,,,,,,,,,,,left,0.871011018753,,,,,,,,,participant18,28,59.8715866105,M,trial,2017_May_29_1705,
,,,,,,,,,,,,,,,,,,,,,,,,,space,7.35102176666,,,,,,,participant18,28,59.8715866105,M,trial,2017_May_29_1705,
,,0.1,"[-2.25, 0]",/sounds/legit/left35.wav,,,,,0,0,0,20,,,,,,,,,,,,,,,left,2.20628499985,,,,,participant18,28,59.8715866105,M,trial,2017_May_29_1705,
,,0.62,"[-6.75, 0]",/sounds/legit/left100.wav,,,,,0,1,1,34,,,,,,,,,,,,,,,left,38.8676919937,,,,,participant18,28,59.8715866105,M,trial,2017_May_29_1705,
,,0.36,"[4.5, 0]",/sounds/legit/right70.wav,,,,,0,2,2,12,,,,,,,,,,,,,,,right,0.519185066223,,,,,participant18,28,59.8715866105,M,trial,2017_May_29_1705,
,,0.23,"[-6.75, 0]",/sounds/legit/left100.wav,,,,,0,3,3,31,,,,,,,,,,,,,,,left,0.920212030411,,,,,participant18,28,59.8715866105,M,trial,2017_May_29_1705,
,,0.49,"[-2.25, 0]",/sounds/legit/left35.wav,,,,,0,4,4,23,,,,,,,,,,,,,,,left,0.335704803467,,,,,participant18,28,59.8715866105,M,trial,2017_May_29_1705,
,,0.49,"[-6.75, 0]",/sounds/legit/left100.wav,,,,,0,5,5,33,,,,,,,,,,,,,,,left,1.27057003975,,,,,participant18,28,59.8715866105,M,trial,2017_May_29_1705,
,,0.1,"[-6.75, 0]",/sounds/legit/left100.wav,,,,,0,6,6,30,,,,,,,,,,,,,,,left,0.652631044388,,,,,participant18,28,59.8715866105,M,trial,2017_May_29_1705,
,,0.36,"[-2.25, 0]",/sounds/legit/left35.wav,,,,,0,7,7,22,,,,,,,,,,,,,,,left,0.953234910965,,,,,participant18,28,59.8715866105,M,trial,2017_May_29_1705,
,,0.49,"[2.25, 0]",/sounds/legit/right35.wav,,,,,0,8,8,8,,,,,,,,,,,,,,,right,0.285302877426,,,,,participant18,28,59.8715866105,M,trial,2017_May_29_1705,
,,0.36,"[-6.75, 0]",/sounds/legit/left100.wav,,,,,0,9,9,32,,,,,,,,,,,,,,,left,0.652708053589,,,,,participant18,28,59.8715866105,M,trial,2017_May_29_1705,
,,0.23,"[-4.5, 0]",/sounds/legit/left70.wav,,,,,0,10,10,26,,,,,,,,,,,,,,,left,0.218296051025,,,,,participant18,28,59.8715866105,M,trial,2017_May_29_1705,
,,0.23,"[4.5, 0]",/sounds/legit/right70.wav,,,,,0,11,11,11,,,,,,,,,,,,,,,right,0.0850300788879,,,,,participant18,28,59.8715866105,M,trial,2017_May_29_1705,
,,0.49,"[0, 0]",/sounds/legit/equal.wav,,,,,0,12,12,3,,,,,,,,,,,,,,,left,1.38760304451,,,,,participant18,28,59.8715866105,M,trial,2017_May_29_1705,
,,0.49,"[6.75, 0]",/sounds/legit/right100.wav,,,,,0,13,13,18,,,,,,,,,,,,,,,right,0.234994888306,,,,,participant18,28,59.8715866105,M,trial,2017_May_29_1705,
,,0.1,"[6.75, 0]",/sounds/legit/right100.wav,,,,,0,14,14,15,,,,,,,,,,,,,,,right,0.368991851807,,,,,participant18,28,59.8715866105,M,trial,2017_May_29_1705,
,,0.49,"[4.5, 0]",/sounds/legit/right70.wav,,,,,0,15,15,13,,,,,,,,,,,,,,,right,0.786384105682,,,,,participant18,28,59.8715866105,M,trial,2017_May_29_1705,
,,0.62,"[-4.5, 0]",/sounds/legit/left70.wav,,,,,0,16,16,29,,,,,,,,,,,,,,,left,0.402353048325,,,,,participant18,28,59.8715866105,M,trial,2017_May_29_1705,
,,0.62,"[0, 0]",/sounds/legit/equal.wav,,,,,0,17,17,4,,,,,,,,,,,,,,,left,1.43770313263,,,,,participant18,28,59.8715866105,M,trial,2017_May_29_1705,
,,0.23,"[6.75, 0]",/sounds/legit/right100.wav,,,,,0,18,18,16,,,,,,,,,,,,,,,right,0.268603086472,,,,,participant18,28,59.8715866105,M,trial,2017_May_29_1705,
,,0.62,"[4.5, 0]",/sounds/legit/right70.wav,,,,,0,19,19,14,,,,,,,,,,,,,,,right,0.318447113037,,,,,participant18,28,59.8715866105,M,trial,2017_May_29_1705,
,,0.62,"[6.75, 0]",/sounds/legit/right100.wav,,,,,0,20,20,19,,,,,,,,,,,,,,,right,0.352119922638,,,,,participant18,28,59.8715866105,M,trial,2017_May_29_1705,
,,0.62,"[2.25, 0]",/sounds/legit/right35.wav,,,,,0,21,21,9,,,,,,,,,,,,,,,right,0.301936864853,,,,,participant18,28,59.8715866105,M,trial,2017_May_29_1705,
,,0.62,"[-2.25, 0]",/sounds/legit/left35.wav,,,,,0,22,22,24,,,,,,,,,,,,,,,left,0.285300016403,,,,,participant18,28,59.8715866105,M,trial,2017_May_29_1705,
,,0.36,"[2.25, 0]",/sounds/legit/right35.wav,,,,,0,23,23,7,,,,,,,,,,,,,,,right,0.402161836624,,,,,participant18,28,59.8715866105,M,trial,2017_May_29_1705,
,,0.1,"[4.5, 0]",/sounds/legit/right70.wav,,,,,0,24,24,10,,,,,,,,,,,,,,,right,0.268394947052,,,,,participant18,28,59.8715866105,M,trial,2017_May_29_1705,
,,0.23,"[2.25, 0]",/sounds/legit/right35.wav,,,,,0,25,25,6,,,,,,,,,,,,,,,right,0.15169095993,,,,,participant18,28,59.8715866105,M,trial,2017_May_29_1705,
,,0.49,"[-4.5, 0]",/sounds/legit/left70.wav,,,,,0,26,26,28,,,,,,,,,,,,,,,left,0.384458065033,,,,,participant18,28,59.8715866105,M,trial,2017_May_29_1705,
,,0.36,"[6.75, 0]",/sounds/legit/right100.wav,,,,,0,27,27,17,,,,,,,,,,,,,,,right,0.00136590003967,,,,,participant18,28,59.8715866105,M,trial,2017_May_29_1705,
,,0.36,"[0, 0]",/sounds/legit/equal.wav,,,,,0,28,28,2,,,,,,,,,,,,,,,left,0.484829902649,,,,,participant18,28,59.8715866105,M,trial,2017_May_29_1705,
,,0.23,"[-2.25, 0]",/sounds/legit/left35.wav,,,,,0,29,29,21,,,,,,,,,,,,,,,left,0.318840026855,,,,,participant18,28,59.8715866105,M,trial,2017_May_29_1705,
,,0.1,"[-4.5, 0]",/sounds/legit/left70.wav,,,,,0,30,30,25,,,,,,,,,,,,,,,left,0.301976919174,,,,,participant18,28,59.8715866105,M,trial,2017_May_29_1705,
,,0.1,"[2.25, 0]",/sounds/legit/right35.wav,,,,,0,31,31,5,,,,,,,,,,,,,,,right,0.0851430892944,,,,,participant18,28,59.8715866105,M,trial,2017_May_29_1705,
,,0.36,"[-4.5, 0]",/sounds/legit/left70.wav,,,,,0,32,32,27,,,,,,,,,,,,,,,left,0.00132703781128,,,,,participant18,28,59.8715866105,M,trial,2017_May_29_1705,
,,0.1,"[0, 0]",/sounds/legit/equal.wav,,,,,0,33,33,0,,,,,,,,,,,,,,,left,0.235146999359,,,,,participant18,28,59.8715866105,M,trial,2017_May_29_1705,
,,0.23,"[0, 0]",/sounds/legit/equal.wav,,,,,0,34,34,1,,,,,,,,,,,,,,,left,0.28392291069,,,,,participant18,28,59.8715866105,M,trial,2017_May_29_1705,
,,0.23,"[-4.5, 0]",/sounds/legit/left70.wav,,,,,1,0,35,26,,,,,,,,,,,,,,,left,0.0347850322723,,,,,participant18,28,59.8715866105,M,trial,2017_May_29_1705,
,,0.49,"[-6.75, 0]",/sounds/legit/left100.wav,,,,,1,1,36,33,,,,,,,,,,,,,,,left,0.285392045975,,,,,participant18,28,59.8715866105,M,trial,2017_May_29_1705,
,,0.1,"[-2.25, 0]",/sounds/legit/left35.wav,,,,,1,2,37,20,,,,,,,,,,,,,,,left,0.134711027145,,,,,participant18,28,59.8715866105,M,trial,2017_May_29_1705,
,,0.49,"[-4.5, 0]",/sounds/legit/left70.wav,,,,,1,3,38,28,,,,,,,,,,,,,,,left,0.118204832077,,,,,participant18,28,59.8715866105,M,trial,2017_May_29_1705,
,,0.36,"[4.5, 0]",/sounds/legit/right70.wav,,,,,1,4,39,12,,,,,,,,,,,,,,,right,0.285446882248,,,,,participant18,28,59.8715866105,M,trial,2017_May_29_1705,
,,0.1,"[0, 0]",/sounds/legit/equal.wav,,,,,1,5,40,0,,,,,,,,,,,,,,,left,0.452089071274,,,,,participant18,28,59.8715866105,M,trial,2017_May_29_1705,
,,0.49,"[0, 0]",/sounds/legit/equal.wav,,,,,1,6,41,3,,,,,,,,,,,,,,,left,1.05357980728,,,,,participant18,28,59.8715866105,M,trial,2017_May_29_1705,
,,0.1,"[2.25, 0]",/sounds/legit/right35.wav,,,,,1,7,42,5,,,,,,,,,,,,,,,right,0.20189499855,,,,,participant18,28,59.8715866105,M,trial,2017_May_29_1705,
,,0.62,"[2.25, 0]",/sounds/legit/right35.wav,,,,,1,8,43,9,,,,,,,,,,,,,,,right,0.318699121475,,,,,participant18,28,59.8715866105,M,trial,2017_May_29_1705,
,,0.1,"[-6.75, 0]",/sounds/legit/left100.wav,,,,,1,9,44,30,,,,,,,,,,,,,,,left,0.535630941391,,,,,participant18,28,59.8715866105,M,trial,2017_May_29_1705,
,,0.62,"[6.75, 0]",/sounds/legit/right100.wav,,,,,1,10,45,19,,,,,,,,,,,,,,,right,0.184835910797,,,,,participant18,28,59.8715866105,M,trial,2017_May_29_1705,
,,0.62,"[-4.5, 0]",/sounds/legit/left70.wav,,,,,1,11,46,29,,,,,,,,,,,,,,,left,0.335643053055,,,,,participant18,28,59.8715866105,M,trial,2017_May_29_1705,
,,0.23,"[-2.25, 0]",/sounds/legit/left35.wav,,,,,1,12,47,21,,,,,,,,,,,,,,,left,0.418841123581,,,,,participant18,28,59.8715866105,M,trial,2017_May_29_1705,
,,0.23,"[2.25, 0]",/sounds/legit/right35.wav,,,,,1,13,48,6,,,,,,,,,,,,,,,right,1.17052507401,,,,,participant18,28,59.8715866105,M,trial,2017_May_29_1705,
,,0.36,"[-6.75, 0]",/sounds/legit/left100.wav,,,,,1,14,49,32,,,,,,,,,,,,,,,left,1.02022504807,,,,,participant18,28,59.8715866105,M,trial,2017_May_29_1705,
,,0.23,"[0, 0]",/sounds/legit/equal.wav,,,,,1,15,50,1,,,,,,,,,,,,,,,left,0.318598031998,,,,,participant18,28,59.8715866105,M,trial,2017_May_29_1705,
,,0.62,"[-6.75, 0]",/sounds/legit/left100.wav,,,,,1,16,51,34,,,,,,,,,,,,,,,left,4.11022901535,,,,,participant18,28,59.8715866105,M,trial,2017_May_29_1705,
,,0.62,"[0, 0]",/sounds/legit/equal.wav,,,,,1,17,52,4,,,,,,,,,,,,,,,left,0.687398910522,,,,,participant18,28,59.8715866105,M,trial,2017_May_29_1705,
,,0.62,"[-2.25, 0]",/sounds/legit/left35.wav,,,,,1,18,53,24,,,,,,,,,,,,,,,left,0.201798915863,,,,,participant18,28,59.8715866105,M,trial,2017_May_29_1705,
,,0.49,"[2.25, 0]",/sounds/legit/right35.wav,,,,,1,19,54,8,,,,,,,,,,,,,,,right,0.185120105743,,,,,participant18,28,59.8715866105,M,trial,2017_May_29_1705,
,,0.23,"[4.5, 0]",/sounds/legit/right70.wav,,,,,1,20,55,11,,,,,,,,,,,,,,,right,0.151725053787,,,,,participant18,28,59.8715866105,M,trial,2017_May_29_1705,
,,0.36,"[-2.25, 0]",/sounds/legit/left35.wav,,,,,1,21,56,22,,,,,,,,,,,,,,,left,0.218418121338,,,,,participant18,28,59.8715866105,M,trial,2017_May_29_1705,
,,0.36,"[-4.5, 0]",/sounds/legit/left70.wav,,,,,1,22,57,27,,,,,,,,,,,,,,,left,0.101841926575,,,,,participant18,28,59.8715866105,M,trial,2017_May_29_1705,
,,0.1,"[4.5, 0]",/sounds/legit/right70.wav,,,,,1,23,58,10,,,,,,,,,,,,,,,right,0.619673967361,,,,,participant18,28,59.8715866105,M,trial,2017_May_29_1705,
,,0.1,"[-4.5, 0]",/sounds/legit/left70.wav,,,,,1,24,59,25,,,,,,,,,,,,,,,left,0.268539190292,,,,,participant18,28,59.8715866105,M,trial,2017_May_29_1705,
,,0.49,"[-2.25, 0]",/sounds/legit/left35.wav,,,,,1,25,60,23,,,,,,,,,,,,,,,left,0.435570001602,,,,,participant18,28,59.8715866105,M,trial,2017_May_29_1705,
,,0.36,"[0, 0]",/sounds/legit/equal.wav,,,,,1,26,61,2,,,,,,,,,,,,,,,left,0.3689661026,,,,,participant18,28,59.8715866105,M,trial,2017_May_29_1705,
,,0.49,"[4.5, 0]",/sounds/legit/right70.wav,,,,,1,27,62,13,,,,,,,,,,,,,,,right,0.219073057175,,,,,participant18,28,59.8715866105,M,trial,2017_May_29_1705,
,,0.1,"[6.75, 0]",/sounds/legit/right100.wav,,,,,1,28,63,15,,,,,,,,,,,,,,,right,0.0850558280945,,,,,participant18,28,59.8715866105,M,trial,2017_May_29_1705,
,,0.36,"[6.75, 0]",/sounds/legit/right100.wav,,,,,1,29,64,17,,,,,,,,,,,,,,,right,0.0680549144745,,,,,participant18,28,59.8715866105,M,trial,2017_May_29_1705,
,,0.49,"[6.75, 0]",/sounds/legit/right100.wav,,,,,1,30,65,18,,,,,,,,,,,,,,,right,0.118180036545,,,,,participant18,28,59.8715866105,M,trial,2017_May_29_1705,
,,0.23,"[-6.75, 0]",/sounds/legit/left100.wav,,,,,1,31,66,31,,,,,,,,,,,,,,,left,0.185191869736,,,,,participant18,28,59.8715866105,M,trial,2017_May_29_1705,
,,0.62,"[4.5, 0]",/sounds/legit/right70.wav,,,,,1,32,67,14,,,,,,,,,,,,,,,right,0.385567903519,,,,,participant18,28,59.8715866105,M,trial,2017_May_29_1705,
,,0.23,"[6.75, 0]",/sounds/legit/right100.wav,,,,,1,33,68,16,,,,,,,,,,,,,,,right,0.502323865891,,,,,participant18,28,59.8715866105,M,trial,2017_May_29_1705,
,,0.36,"[2.25, 0]",/sounds/legit/right35.wav,,,,,1,34,69,7,,,,,,,,,,,,,,,right,0.151607990265,,,,,participant18,28,59.8715866105,M,trial,2017_May_29_1705,
,,0.62,"[4.5, 0]",/sounds/legit/right70.wav,,,,,2,0,70,14,,,,,,,,,,,,,,,right,0.268499135971,,,,,participant18,28,59.8715866105,M,trial,2017_May_29_1705,
,,0.36,"[-4.5, 0]",/sounds/legit/left70.wav,,,,,2,1,71,27,,,,,,,,,,,,,,,left,0.285305023193,,,,,participant18,28,59.8715866105,M,trial,2017_May_29_1705,
,,0.62,"[2.25, 0]",/sounds/legit/right35.wav,,,,,2,2,72,9,,,,,,,,,,,,,,,right,0.134708166122,,,,,participant18,28,59.8715866105,M,trial,2017_May_29_1705,
,,0.1,"[2.25, 0]",/sounds/legit/right35.wav,,,,,2,3,73,5,,,,,,,,,,,,,,,right,0.100508213043,,,,,participant18,28,59.8715866105,M,trial,2017_May_29_1705,
,,0.62,"[-4.5, 0]",/sounds/legit/left70.wav,,,,,2,4,74,29,,,,,,,,,,,,,,,left,0.168361902237,,,,,participant18,28,59.8715866105,M,trial,2017_May_29_1705,
,,0.23,"[6.75, 0]",/sounds/legit/right100.wav,,,,,2,5,75,16,,,,,,,,,,,,,,,right,8.40269708633,,,,,participant18,28,59.8715866105,M,trial,2017_May_29_1705,
,,0.1,"[4.5, 0]",/sounds/legit/right70.wav,,,,,2,6,76,10,,,,,,,,,,,,,,,right,0.16840004921,,,,,participant18,28,59.8715866105,M,trial,2017_May_29_1705,
,,0.49,"[-2.25, 0]",/sounds/legit/left35.wav,,,,,2,7,77,23,,,,,,,,,,,,,,,left,0.0348191261292,,,,,participant18,28,59.8715866105,M,trial,2017_May_29_1705,
,,0.23,"[-2.25, 0]",/sounds/legit/left35.wav,,,,,2,8,78,21,,,,,,,,,,,,,,,left,0.402222156525,,,,,participant18,28,59.8715866105,M,trial,2017_May_29_1705,
,,0.1,"[-6.75, 0]",/sounds/legit/left100.wav,,,,,2,9,79,30,,,,,,,,,,,,,,,left,0.0847089290619,,,,,participant18,28,59.8715866105,M,trial,2017_May_29_1705,
,,0.49,"[0, 0]",/sounds/legit/equal.wav,,,,,2,10,80,3,,,,,,,,,,,,,,,left,1.42125797272,,,,,participant18,28,59.8715866105,M,trial,2017_May_29_1705,
,,0.23,"[2.25, 0]",/sounds/legit/right35.wav,,,,,2,11,81,6,,,,,,,,,,,,,,,right,3.25811600685,,,,,participant18,28,59.8715866105,M,trial,2017_May_29_1705,
,,0.36,"[-2.25, 0]",/sounds/legit/left35.wav,,,,,2,12,82,22,,,,,,,,,,,,,,,left,0.235117912292,,,,,participant18,28,59.8715866105,M,trial,2017_May_29_1705,
,,0.49,"[6.75, 0]",/sounds/legit/right100.wav,,,,,2,13,83,18,,,,,,,,,,,,,,,right,0.0851609706879,,,,,participant18,28,59.8715866105,M,trial,2017_May_29_1705,
,,0.23,"[-6.75, 0]",/sounds/legit/left100.wav,,,,,2,14,84,31,,,,,,,,,,,,,,,left,0.318716049194,,,,,participant18,28,59.8715866105,M,trial,2017_May_29_1705,
,,0.1,"[0, 0]",/sounds/legit/equal.wav,,,,,2,15,85,0,,,,,,,,,,,,,,,left,0.268619775772,,,,,participant18,28,59.8715866105,M,trial,2017_May_29_1705,
,,0.49,"[-4.5, 0]",/sounds/legit/left70.wav,,,,,2,16,86,28,,,,,,,,,,,,,,,left,0.352368116379,,,,,participant18,28,59.8715866105,M,trial,2017_May_29_1705,
,,0.36,"[-6.75, 0]",/sounds/legit/left100.wav,,,,,2,17,87,32,,,,,,,,,,,,,,,left,0.352109909058,,,,,participant18,28,59.8715866105,M,trial,2017_May_29_1705,
,,0.62,"[-6.75, 0]",/sounds/legit/left100.wav,,,,,2,18,88,34,,,,,,,,,,,,,,,left,0.30192399025,,,,,participant18,28,59.8715866105,M,trial,2017_May_29_1705,
,,0.36,"[0, 0]",/sounds/legit/equal.wav,,,,,2,19,89,2,,,,,,,,,,,,,,,left,0.502676010132,,,,,participant18,28,59.8715866105,M,trial,2017_May_29_1705,
,,0.36,"[2.25, 0]",/sounds/legit/right35.wav,,,,,2,20,90,7,,,,,,,,,,,,,,,right,0.235071182251,,,,,participant18,28,59.8715866105,M,trial,2017_May_29_1705,
,,0.1,"[6.75, 0]",/sounds/legit/right100.wav,,,,,2,21,91,15,,,,,,,,,,,,,,,right,0.101521015167,,,,,participant18,28,59.8715866105,M,trial,2017_May_29_1705,
,,0.1,"[-2.25, 0]",/sounds/legit/left35.wav,,,,,2,22,92,20,,,,,,,,,,,,,,,left,0.218373060226,,,,,participant18,28,59.8715866105,M,trial,2017_May_29_1705,
,,0.49,"[-6.75, 0]",/sounds/legit/left100.wav,,,,,2,23,93,33,,,,,,,,,,,,,,,left,0.485445976257,,,,,participant18,28,59.8715866105,M,trial,2017_May_29_1705,
,,0.62,"[0, 0]",/sounds/legit/equal.wav,,,,,2,24,94,4,,,,,,,,,,,,,,,right,0.669350862503,,,,,participant18,28,59.8715866105,M,trial,2017_May_29_1705,
,,0.62,"[6.75, 0]",/sounds/legit/right100.wav,,,,,2,25,95,19,,,,,,,,,,,,,,,right,0.134761810303,,,,,participant18,28,59.8715866105,M,trial,2017_May_29_1705,
,,0.36,"[6.75, 0]",/sounds/legit/right100.wav,,,,,2,26,96,17,,,,,,,,,,,,,,,right,2.84087991714,,,,,participant18,28,59.8715866105,M,trial,2017_May_29_1705,
,,0.23,"[4.5, 0]",/sounds/legit/right70.wav,,,,,2,27,97,11,,,,,,,,,,,,,,,right,0.0847721099854,,,,,participant18,28,59.8715866105,M,trial,2017_May_29_1705,
,,0.1,"[-4.5, 0]",/sounds/legit/left70.wav,,,,,2,28,98,25,,,,,,,,,,,,,,,left,2.50664687157,,,,,participant18,28,59.8715866105,M,trial,2017_May_29_1705,
,,0.23,"[0, 0]",/sounds/legit/equal.wav,,,,,2,29,99,1,,,,,,,,,,,,,,,left,0.35213804245,,,,,participant18,28,59.8715866105,M,trial,2017_May_29_1705,
,,0.62,"[-2.25, 0]",/sounds/legit/left35.wav,,,,,2,30,100,24,,,,,,,,,,,,,,,left,0.702805042267,,,,,participant18,28,59.8715866105,M,trial,2017_May_29_1705,
,,0.49,"[4.5, 0]",/sounds/legit/right70.wav,,,,,2,31,101,13,,,,,,,,,,,,,,,right,0.00136709213257,,,,,participant18,28,59.8715866105,M,trial,2017_May_29_1705,
,,0.49,"[2.25, 0]",/sounds/legit/right35.wav,,,,,2,32,102,8,,,,,,,,,,,,,,,right,0.084949016571,,,,,participant18,28,59.8715866105,M,trial,2017_May_29_1705,
,,0.23,"[-4.5, 0]",/sounds/legit/left70.wav,,,,,2,33,103,26,,,,,,,,,,,,,,,left,0.0179390907288,,,,,participant18,28,59.8715866105,M,trial,2017_May_29_1705,
,,0.36,"[4.5, 0]",/sounds/legit/right70.wav,,,,,2,34,104,12,,,,,,,,,,,,,,,right,1.58802318573,,,,,participant18,28,59.8715866105,M,trial,2017_May_29_1705,
,,0.49,"[-2.25, 0]",/sounds/legit/left35.wav,,,,,3,0,105,23,,,,,,,,,,,,,,,left,0.368745088577,,,,,participant18,28,59.8715866105,M,trial,2017_May_29_1705,
,,0.23,"[4.5, 0]",/sounds/legit/right70.wav,,,,,3,1,106,11,,,,,,,,,,,,,,,right,1.45447993279,,,,,participant18,28,59.8715866105,M,trial,2017_May_29_1705,
,,0.1,"[4.5, 0]",/sounds/legit/right70.wav,,,,,3,2,107,10,,,,,,,,,,,,,,,right,0.569329977036,,,,,participant18,28,59.8715866105,M,trial,2017_May_29_1705,
,,0.1,"[2.25, 0]",/sounds/legit/right35.wav,,,,,3,3,108,5,,,,,,,,,,,,,,,right,0.0847220420837,,,,,participant18,28,59.8715866105,M,trial,2017_May_29_1705,
,,0.49,"[4.5, 0]",/sounds/legit/right70.wav,,,,,3,4,109,13,,,,,,,,,,,,,,,right,0.235055923462,,,,,participant18,28,59.8715866105,M,trial,2017_May_29_1705,
,,0.23,"[6.75, 0]",/sounds/legit/right100.wav,,,,,3,5,110,16,,,,,,,,,,,,,,,right,0.118392944336,,,,,participant18,28,59.8715866105,M,trial,2017_May_29_1705,
,,0.49,"[-6.75, 0]",/sounds/legit/left100.wav,,,,,3,6,111,33,,,,,,,,,,,,,,,left,1.12015509605,,,,,participant18,28,59.8715866105,M,trial,2017_May_29_1705,
,,0.36,"[2.25, 0]",/sounds/legit/right35.wav,,,,,3,7,112,7,,,,,,,,,,,,,,,right,0.385530948639,,,,,participant18,28,59.8715866105,M,trial,2017_May_29_1705,
,,0.62,"[-4.5, 0]",/sounds/legit/left70.wav,,,,,3,8,113,29,,,,,,,,,,,,,,,left,0.536056041718,,,,,participant18,28,59.8715866105,M,trial,2017_May_29_1705,
,,0.36,"[0, 0]",/sounds/legit/equal.wav,,,,,3,9,114,2,,,,,,,,,,,,,,,right,0.886631965637,,,,,participant18,28,59.8715866105,M,trial,2017_May_29_1705,
,,0.1,"[0, 0]",/sounds/legit/equal.wav,,,,,3,10,115,0,,,,,,,,,,,,,,,left,2.12276291847,,,,,participant18,28,59.8715866105,M,trial,2017_May_29_1705,
,,0.23,"[2.25, 0]",/sounds/legit/right35.wav,,,,,3,11,116,6,,,,,,,,,,,,,,,right,0.351906061172,,,,,participant18,28,59.8715866105,M,trial,2017_May_29_1705,
,,0.62,"[6.75, 0]",/sounds/legit/right100.wav,,,,,3,12,117,19,,,,,,,,,,,,,,,right,1.27109599113,,,,,participant18,28,59.8715866105,M,trial,2017_May_29_1705,
,,0.1,"[-4.5, 0]",/sounds/legit/left70.wav,,,,,3,13,118,25,,,,,,,,,,,,,,,left,0.0838069915771,,,,,participant18,28,59.8715866105,M,trial,2017_May_29_1705,
,,0.1,"[-2.25, 0]",/sounds/legit/left35.wav,,,,,3,14,119,20,,,,,,,,,,,,,,,left,0.502531051636,,,,,participant18,28,59.8715866105,M,trial,2017_May_29_1705,
,,0.49,"[-4.5, 0]",/sounds/legit/left70.wav,,,,,3,15,120,28,,,,,,,,,,,,,,,left,0.368668079376,,,,,participant18,28,59.8715866105,M,trial,2017_May_29_1705,
,,0.1,"[-6.75, 0]",/sounds/legit/left100.wav,,,,,3,16,121,30,,,,,,,,,,,,,,,left,0.302173137665,,,,,participant18,28,59.8715866105,M,trial,2017_May_29_1705,
,,0.23,"[-2.25, 0]",/sounds/legit/left35.wav,,,,,3,17,122,21,,,,,,,,,,,,,,,left,0.402030944824,,,,,participant18,28,59.8715866105,M,trial,2017_May_29_1705,
,,0.23,"[-4.5, 0]",/sounds/legit/left70.wav,,,,,3,18,123,26,,,,,,,,,,,,,,,left,0.318451881409,,,,,participant18,28,59.8715866105,M,trial,2017_May_29_1705,
,,0.62,"[4.5, 0]",/sounds/legit/right70.wav,,,,,3,19,124,14,,,,,,,,,,,,,,,right,0.284543991089,,,,,participant18,28,59.8715866105,M,trial,2017_May_29_1705,
,,0.36,"[4.5, 0]",/sounds/legit/right70.wav,,,,,3,20,125,12,,,,,,,,,,,,,,,right,1.08702301979,,,,,participant18,28,59.8715866105,M,trial,2017_May_29_1705,
,,0.62,"[-6.75, 0]",/sounds/legit/left100.wav,,,,,3,21,126,34,,,,,,,,,,,,,,,left,0.318542957306,,,,,participant18,28,59.8715866105,M,trial,2017_May_29_1705,
,,0.23,"[0, 0]",/sounds/legit/equal.wav,,,,,3,22,127,1,,,,,,,,,,,,,,,left,0.385623931885,,,,,participant18,28,59.8715866105,M,trial,2017_May_29_1705,
,,0.49,"[2.25, 0]",/sounds/legit/right35.wav,,,,,3,23,128,8,,,,,,,,,,,,,,,right,0.786400794983,,,,,participant18,28,59.8715866105,M,trial,2017_May_29_1705,
,,0.49,"[6.75, 0]",/sounds/legit/right100.wav,,,,,3,24,129,18,,,,,,,,,,,,,,,right,0.518955945969,,,,,participant18,28,59.8715866105,M,trial,2017_May_29_1705,
,,0.1,"[6.75, 0]",/sounds/legit/right100.wav,,,,,3,25,130,15,,,,,,,,,,,,,,,right,0.402015924454,,,,,participant18,28,59.8715866105,M,trial,2017_May_29_1705,
,,0.49,"[0, 0]",/sounds/legit/equal.wav,,,,,3,26,131,3,,,,,,,,,,,,,,,left,0.836487054825,,,,,participant18,28,59.8715866105,M,trial,2017_May_29_1705,
,,0.62,"[-2.25, 0]",/sounds/legit/left35.wav,,,,,3,27,132,24,,,,,,,,,,,,,,,left,2.15602707863,,,,,participant18,28,59.8715866105,M,trial,2017_May_29_1705,
,,0.36,"[-6.75, 0]",/sounds/legit/left100.wav,,,,,3,28,133,32,,,,,,,,,,,,,,,left,0.352124929428,,,,,participant18,28,59.8715866105,M,trial,2017_May_29_1705,
,,0.62,"[0, 0]",/sounds/legit/equal.wav,,,,,3,29,134,4,,,,,,,,,,,,,,,left,1.18732190132,,,,,participant18,28,59.8715866105,M,trial,2017_May_29_1705,
,,0.36,"[6.75, 0]",/sounds/legit/right100.wav,,,,,3,30,135,17,,,,,,,,,,,,,,,right,2.22266101837,,,,,participant18,28,59.8715866105,M,trial,2017_May_29_1705,
,,0.36,"[-4.5, 0]",/sounds/legit/left70.wav,,,,,3,31,136,27,,,,,,,,,,,,,,,left,0.986675024033,,,,,participant18,28,59.8715866105,M,trial,2017_May_29_1705,
,,0.23,"[-6.75, 0]",/sounds/legit/left100.wav,,,,,3,32,137,31,,,,,,,,,,,,,,,left,0.669404983521,,,,,participant18,28,59.8715866105,M,trial,2017_May_29_1705,
,,0.36,"[-2.25, 0]",/sounds/legit/left35.wav,,,,,3,33,138,22,,,,,,,,,,,,,,,left,1.58795404434,,,,,participant18,28,59.8715866105,M,trial,2017_May_29_1705,
,,0.62,"[2.25, 0]",/sounds/legit/right35.wav,,,,,3,34,139,9,,,,,,,,,,,,,,,right,2.65677690506,,,,,participant18,28,59.8715866105,M,trial,2017_May_29_1705,
,,0.23,"[0, 0]",/sounds/legit/equal.wav,,,,,4,0,140,1,,,,,,,,,,,,,,,left,0.853328943253,,,,,participant18,28,59.8715866105,M,trial,2017_May_29_1705,
,,0.1,"[-4.5, 0]",/sounds/legit/left70.wav,,,,,4,1,141,25,,,,,,,,,,,,,,,left,0.903232097626,,,,,participant18,28,59.8715866105,M,trial,2017_May_29_1705,
,,0.36,"[-4.5, 0]",/sounds/legit/left70.wav,,,,,4,2,142,27,,,,,,,,,,,,,,,left,2.23902416229,,,,,participant18,28,59.8715866105,M,trial,2017_May_29_1705,
,,0.1,"[2.25, 0]",/sounds/legit/right35.wav,,,,,4,3,143,5,,,,,,,,,,,,,,,right,0.819775104523,,,,,participant18,28,59.8715866105,M,trial,2017_May_29_1705,
,,0.36,"[6.75, 0]",/sounds/legit/right100.wav,,,,,4,4,144,17,,,,,,,,,,,,,,,right,6.74894380569,,,,,participant18,28,59.8715866105,M,trial,2017_May_29_1705,
,,0.36,"[-6.75, 0]",/sounds/legit/left100.wav,,,,,4,5,145,32,,,,,,,,,,,,,,,left,0.402232885361,,,,,participant18,28,59.8715866105,M,trial,2017_May_29_1705,
,,0.62,"[0, 0]",/sounds/legit/equal.wav,,,,,4,6,146,4,,,,,,,,,,,,,,,right,1.33724880219,,,,,participant18,28,59.8715866105,M,trial,2017_May_29_1705,
,,0.36,"[-2.25, 0]",/sounds/legit/left35.wav,,,,,4,7,147,22,,,,,,,,,,,,,,,left,3.25814390182,,,,,participant18,28,59.8715866105,M,trial,2017_May_29_1705,
,,0.49,"[2.25, 0]",/sounds/legit/right35.wav,,,,,4,8,148,8,,,,,,,,,,,,,,,right,2.20526218414,,,,,participant18,28,59.8715866105,M,trial,2017_May_29_1705,
,,0.36,"[4.5, 0]",/sounds/legit/right70.wav,,,,,4,9,149,12,,,,,,,,,,,,,,,right,1.15379405022,,,,,participant18,28,59.8715866105,M,trial,2017_May_29_1705,
,,0.23,"[4.5, 0]",/sounds/legit/right70.wav,,,,,4,10,150,11,,,,,,,,,,,,,,,right,1.77208614349,,,,,participant18,28,59.8715866105,M,trial,2017_May_29_1705,
,,0.23,"[-6.75, 0]",/sounds/legit/left100.wav,,,,,4,11,151,31,,,,,,,,,,,,,,,left,1.05370092392,,,,,participant18,28,59.8715866105,M,trial,2017_May_29_1705,
,,0.49,"[4.5, 0]",/sounds/legit/right70.wav,,,,,4,12,152,13,,,,,,,,,,,,,,,right,5.17881917953,,,,,participant18,28,59.8715866105,M,trial,2017_May_29_1705,
,,0.49,"[-2.25, 0]",/sounds/legit/left35.wav,,,,,4,13,153,23,,,,,,,,,,,,,,,left,0.71958398819,,,,,participant18,28,59.8715866105,M,trial,2017_May_29_1705,
,,0.23,"[-2.25, 0]",/sounds/legit/left35.wav,,,,,4,14,154,21,,,,,,,,,,,,,,,left,0.719309806824,,,,,participant18,28,59.8715866105,M,trial,2017_May_29_1705,
,,0.62,"[-2.25, 0]",/sounds/legit/left35.wav,,,,,4,15,155,24,,,,,,,,,,,,,,,left,0.301963090897,,,,,participant18,28,59.8715866105,M,trial,2017_May_29_1705,
,,0.36,"[2.25, 0]",/sounds/legit/right35.wav,,,,,4,16,156,7,,,,,,,,,,,,,,,right,0.301971912384,,,,,participant18,28,59.8715866105,M,trial,2017_May_29_1705,
,,0.1,"[6.75, 0]",/sounds/legit/right100.wav,,,,,4,17,157,15,,,,,,,,,,,,,,,right,1.18731689453,,,,,participant18,28,59.8715866105,M,trial,2017_May_29_1705,
,,0.1,"[0, 0]",/sounds/legit/equal.wav,,,,,4,18,158,0,,,,,,,,,,,,,,,left,0.8031270504,,,,,participant18,28,59.8715866105,M,trial,2017_May_29_1705,
,,0.49,"[6.75, 0]",/sounds/legit/right100.wav,,,,,4,19,159,18,,,,,,,,,,,,,,,right,0.101547002792,,,,,participant18,28,59.8715866105,M,trial,2017_May_29_1705,
,,0.49,"[0, 0]",/sounds/legit/equal.wav,,,,,4,20,160,3,,,,,,,,,,,,,,,left,0.869988918304,,,,,participant18,28,59.8715866105,M,trial,2017_May_29_1705,
,,0.62,"[4.5, 0]",/sounds/legit/right70.wav,,,,,4,21,161,14,,,,,,,,,,,,,,,right,0.602562189102,,,,,participant18,28,59.8715866105,M,trial,2017_May_29_1705,
,,0.23,"[-4.5, 0]",/sounds/legit/left70.wav,,,,,4,22,162,26,,,,,,,,,,,,,,,left,0.71958398819,,,,,participant18,28,59.8715866105,M,trial,2017_May_29_1705,
,,0.23,"[2.25, 0]",/sounds/legit/right35.wav,,,,,4,23,163,6,,,,,,,,,,,,,,,right,0.43549990654,,,,,participant18,28,59.8715866105,M,trial,2017_May_29_1705,
,,0.62,"[-6.75, 0]",/sounds/legit/left100.wav,,,,,4,24,164,34,,,,,,,,,,,,,,,left,0.853143930435,,,,,participant18,28,59.8715866105,M,trial,2017_May_29_1705,
,,0.23,"[6.75, 0]",/sounds/legit/right100.wav,,,,,4,25,165,16,,,,,,,,,,,,,,,right,0.368743896484,,,,,participant18,28,59.8715866105,M,trial,2017_May_29_1705,
,,0.49,"[-6.75, 0]",/sounds/legit/left100.wav,,,,,4,26,166,33,,,,,,,,,,,,,,,left,0.385302066803,,,,,participant18,28,59.8715866105,M,trial,2017_May_29_1705,
,,0.1,"[-6.75, 0]",/sounds/legit/left100.wav,,,,,4,27,167,30,,,,,,,,,,,,,,,left,0.636000871658,,,,,participant18,28,59.8715866105,M,trial,2017_May_29_1705,
,,0.62,"[6.75, 0]",/sounds/legit/right100.wav,,,,,4,28,168,19,,,,,,,,,,,,,,,right,0.485773086548,,,,,participant18,28,59.8715866105,M,trial,2017_May_29_1705,
,,0.36,"[0, 0]",/sounds/legit/equal.wav,,,,,4,29,169,2,,,,,,,,,,,,,,,left,1.13695693016,,,,,participant18,28,59.8715866105,M,trial,2017_May_29_1705,
,,0.62,"[2.25, 0]",/sounds/legit/right35.wav,,,,,4,30,170,9,,,,,,,,,,,,,,,right,0.335340976715,,,,,participant18,28,59.8715866105,M,trial,2017_May_29_1705,
,,0.49,"[-4.5, 0]",/sounds/legit/left70.wav,,,,,4,31,171,28,,,,,,,,,,,,,,,left,0.435512065887,,,,,participant18,28,59.8715866105,M,trial,2017_May_29_1705,
,,0.62,"[-4.5, 0]",/sounds/legit/left70.wav,,,,,4,32,172,29,,,,,,,,,,,,,,,left,0.402518987656,,,,,participant18,28,59.8715866105,M,trial,2017_May_29_1705,
,,0.1,"[4.5, 0]",/sounds/legit/right70.wav,,,,,4,33,173,10,,,,,,,,,,,,,,,right,0.368736028671,,,,,participant18,28,59.8715866105,M,trial,2017_May_29_1705,
,,0.1,"[-2.25, 0]",/sounds/legit/left35.wav,,,,,4,34,174,20,,,,,,,,,,,,,,,left,0.485592126846,,,,,participant18,28,59.8715866105,M,trial,2017_May_29_1705,
,,0.1,"[-4.5, 0]",/sounds/legit/left70.wav,,,,,5,0,175,25,,,,,,,,,,,,,,,left,0.185064077377,,,,,participant18,28,59.8715866105,M,trial,2017_May_29_1705,
,,0.62,"[-6.75, 0]",/sounds/legit/left100.wav,,,,,5,1,176,34,,,,,,,,,,,,,,,left,1.10369300842,,,,,participant18,28,59.8715866105,M,trial,2017_May_29_1705,
,,0.36,"[4.5, 0]",/sounds/legit/right70.wav,,,,,5,2,177,12,,,,,,,,,,,,,,,right,0.236003160477,,,,,participant18,28,59.8715866105,M,trial,2017_May_29_1705,
,,0.62,"[-2.25, 0]",/sounds/legit/left35.wav,,,,,5,3,178,24,,,,,,,,,,,,,,,left,0.803086996078,,,,,participant18,28,59.8715866105,M,trial,2017_May_29_1705,
,,0.62,"[0, 0]",/sounds/legit/equal.wav,,,,,5,4,179,4,,,,,,,,,,,,,,,left,0.786268949509,,,,,participant18,28,59.8715866105,M,trial,2017_May_29_1705,
,,0.49,"[-6.75, 0]",/sounds/legit/left100.wav,,,,,5,5,180,33,,,,,,,,,,,,,,,left,0.686029911041,,,,,participant18,28,59.8715866105,M,trial,2017_May_29_1705,
,,0.36,"[2.25, 0]",/sounds/legit/right35.wav,,,,,5,6,181,7,,,,,,,,,,,,,,,right,0.402249097824,,,,,participant18,28,59.8715866105,M,trial,2017_May_29_1705,
,,0.23,"[-6.75, 0]",/sounds/legit/left100.wav,,,,,5,7,182,31,,,,,,,,,,,,,,,left,0.502536058426,,,,,participant18,28,59.8715866105,M,trial,2017_May_29_1705,
,,0.1,"[0, 0]",/sounds/legit/equal.wav,,,,,5,8,183,0,,,,,,,,,,,,,,,left,0.803313970566,,,,,participant18,28,59.8715866105,M,trial,2017_May_29_1705,
,,0.1,"[-2.25, 0]",/sounds/legit/left35.wav,,,,,5,9,184,20,,,,,,,,,,,,,,,left,0.652660131454,,,,,participant18,28,59.8715866105,M,trial,2017_May_29_1705,
,,0.62,"[2.25, 0]",/sounds/legit/right35.wav,,,,,5,10,185,9,,,,,,,,,,,,,,,right,1.47149395943,,,,,participant18,28,59.8715866105,M,trial,2017_May_29_1705,
,,0.36,"[-2.25, 0]",/sounds/legit/left35.wav,,,,,5,11,186,22,,,,,,,,,,,,,,,left,0.30314707756,,,,,participant18,28,59.8715866105,M,trial,2017_May_29_1705,
,,0.36,"[0, 0]",/sounds/legit/equal.wav,,,,,5,12,187,2,,,,,,,,,,,,,,,left,0.368917942047,,,,,participant18,28,59.8715866105,M,trial,2017_May_29_1705,
,,0.23,"[-4.5, 0]",/sounds/legit/left70.wav,,,,,5,13,188,26,,,,,,,,,,,,,,,left,0.351068019867,,,,,participant18,28,59.8715866105,M,trial,2017_May_29_1705,
,,0.23,"[2.25, 0]",/sounds/legit/right35.wav,,,,,5,14,189,6,,,,,,,,,,,,,,,right,0.652830839157,,,,,participant18,28,59.8715866105,M,trial,2017_May_29_1705,
,,0.36,"[-4.5, 0]",/sounds/legit/left70.wav,,,,,5,15,190,27,,,,,,,,,,,,,,,left,0.385332107544,,,,,participant18,28,59.8715866105,M,trial,2017_May_29_1705,
,,0.62,"[4.5, 0]",/sounds/legit/right70.wav,,,,,5,16,191,14,,,,,,,,,,,,,,,right,0.752830028534,,,,,participant18,28,59.8715866105,M,trial,2017_May_29_1705,
,,0.23,"[-2.25, 0]",/sounds/legit/left35.wav,,,,,5,17,192,21,,,,,,,,,,,,,,,left,0.385478973389,,,,,participant18,28,59.8715866105,M,trial,2017_May_29_1705,
,,0.49,"[-4.5, 0]",/sounds/legit/left70.wav,,,,,5,18,193,28,,,,,,,,,,,,,,,left,0.468953132629,,,,,participant18,28,59.8715866105,M,trial,2017_May_29_1705,
,,0.1,"[6.75, 0]",/sounds/legit/right100.wav,,,,,5,19,194,15,,,,,,,,,,,,,,,right,0.268472909927,,,,,participant18,28,59.8715866105,M,trial,2017_May_29_1705,
,,0.23,"[6.75, 0]",/sounds/legit/right100.wav,,,,,5,20,195,16,,,,,,,,,,,,,,,right,0.552396059036,,,,,participant18,28,59.8715866105,M,trial,2017_May_29_1705,
,,0.23,"[4.5, 0]",/sounds/legit/right70.wav,,,,,5,21,196,11,,,,,,,,,,,,,,,right,0.38547205925,,,,,participant18,28,59.8715866105,M,trial,2017_May_29_1705,
,,0.62,"[6.75, 0]",/sounds/legit/right100.wav,,,,,5,22,197,19,,,,,,,,,,,,,,,right,0.669430971146,,,,,participant18,28,59.8715866105,M,trial,2017_May_29_1705,
,,0.1,"[-6.75, 0]",/sounds/legit/left100.wav,,,,,5,23,198,30,,,,,,,,,,,,,,,left,0.385360956192,,,,,participant18,28,59.8715866105,M,trial,2017_May_29_1705,
,,0.1,"[4.5, 0]",/sounds/legit/right70.wav,,,,,5,24,199,10,,,,,,,,,,,,,,,right,0.385703086853,,,,,participant18,28,59.8715866105,M,trial,2017_May_29_1705,
,,0.49,"[-2.25, 0]",/sounds/legit/left35.wav,,,,,5,25,200,23,,,,,,,,,,,,,,,left,0.251904964447,,,,,participant18,28,59.8715866105,M,trial,2017_May_29_1705,
,,0.62,"[-4.5, 0]",/sounds/legit/left70.wav,,,,,5,26,201,29,,,,,,,,,,,,,,,left,0.868903875351,,,,,participant18,28,59.8715866105,M,trial,2017_May_29_1705,
,,0.49,"[2.25, 0]",/sounds/legit/right35.wav,,,,,5,27,202,8,,,,,,,,,,,,,,,right,0.469331026077,,,,,participant18,28,59.8715866105,M,trial,2017_May_29_1705,
,,0.36,"[-6.75, 0]",/sounds/legit/left100.wav,,,,,5,28,203,32,,,,,,,,,,,,,,,left,0.368730068207,,,,,participant18,28,59.8715866105,M,trial,2017_May_29_1705,
,,0.49,"[6.75, 0]",/sounds/legit/right100.wav,,,,,5,29,204,18,,,,,,,,,,,,,,,right,0.2017390728,,,,,participant18,28,59.8715866105,M,trial,2017_May_29_1705,
,,0.49,"[4.5, 0]",/sounds/legit/right70.wav,,,,,5,30,205,13,,,,,,,,,,,,,,,right,0.953356981277,,,,,participant18,28,59.8715866105,M,trial,2017_May_29_1705,
,,0.1,"[2.25, 0]",/sounds/legit/right35.wav,,,,,5,31,206,5,,,,,,,,,,,,,,,right,0.635138034821,,,,,participant18,28,59.8715866105,M,trial,2017_May_29_1705,
,,0.49,"[0, 0]",/sounds/legit/equal.wav,,,,,5,32,207,3,,,,,,,,,,,,,,,left,0.970023870468,,,,,participant18,28,59.8715866105,M,trial,2017_May_29_1705,
,,0.23,"[0, 0]",/sounds/legit/equal.wav,,,,,5,33,208,1,,,,,,,,,,,,,,,left,0.936637878418,,,,,participant18,28,59.8715866105,M,trial,2017_May_29_1705,
,,0.36,"[6.75, 0]",/sounds/legit/right100.wav,,,,,5,34,209,17,,,,,,,,,,,,,,,right,0.118331193924,,,,,participant18,28,59.8715866105,M,trial,2017_May_29_1705,
,,0.36,"[4.5, 0]",/sounds/legit/right70.wav,,,,,6,0,210,12,,,,,,,,,,,,,,,right,0.553826093674,,,,,participant18,28,59.8715866105,M,trial,2017_May_29_1705,
,,0.49,"[-4.5, 0]",/sounds/legit/left70.wav,,,,,6,1,211,28,,,,,,,,,,,,,,,left,0.452097892761,,,,,participant18,28,59.8715866105,M,trial,2017_May_29_1705,
,,0.1,"[-6.75, 0]",/sounds/legit/left100.wav,,,,,6,2,212,30,,,,,,,,,,,,,,,left,0.252101898193,,,,,participant18,28,59.8715866105,M,trial,2017_May_29_1705,
,,0.62,"[2.25, 0]",/sounds/legit/right35.wav,,,,,6,3,213,9,,,,,,,,,,,,,,,left,0.368645906448,,,,,participant18,28,59.8715866105,M,trial,2017_May_29_1705,
,,0.36,"[6.75, 0]",/sounds/legit/right100.wav,,,,,6,4,214,17,,,,,,,,,,,,,,,right,0.301957845688,,,,,participant18,28,59.8715866105,M,trial,2017_May_29_1705,
,,0.1,"[-4.5, 0]",/sounds/legit/left70.wav,,,,,6,5,215,25,,,,,,,,,,,,,,,left,0.252017974854,,,,,participant18,28,59.8715866105,M,trial,2017_May_29_1705,
,,0.62,"[0, 0]",/sounds/legit/equal.wav,,,,,6,6,216,4,,,,,,,,,,,,,,,left,0.36904501915,,,,,participant18,28,59.8715866105,M,trial,2017_May_29_1705,
,,0.49,"[4.5, 0]",/sounds/legit/right70.wav,,,,,6,7,217,13,,,,,,,,,,,,,,,right,0.803123950958,,,,,participant18,28,59.8715866105,M,trial,2017_May_29_1705,
,,0.36,"[-6.75, 0]",/sounds/legit/left100.wav,,,,,6,8,218,32,,,,,,,,,,,,,,,left,0.301890134811,,,,,participant18,28,59.8715866105,M,trial,2017_May_29_1705,
,,0.62,"[-2.25, 0]",/sounds/legit/left35.wav,,,,,6,9,219,24,,,,,,,,,,,,,,,left,0.953232049942,,,,,participant18,28,59.8715866105,M,trial,2017_May_29_1705,
,,0.23,"[6.75, 0]",/sounds/legit/right100.wav,,,,,6,10,220,16,,,,,,,,,,,,,,,right,0.201610088348,,,,,participant18,28,59.8715866105,M,trial,2017_May_29_1705,
,,0.62,"[4.5, 0]",/sounds/legit/right70.wav,,,,,6,11,221,14,,,,,,,,,,,,,,,right,0.903259992599,,,,,participant18,28,59.8715866105,M,trial,2017_May_29_1705,
,,0.62,"[-4.5, 0]",/sounds/legit/left70.wav,,,,,6,12,222,29,,,,,,,,,,,,,,,left,1.72159600258,,,,,participant18,28,59.8715866105,M,trial,2017_May_29_1705,
,,0.1,"[6.75, 0]",/sounds/legit/right100.wav,,,,,6,13,223,15,,,,,,,,,,,,,,,right,0.318766117096,,,,,participant18,28,59.8715866105,M,trial,2017_May_29_1705,
,,0.23,"[-4.5, 0]",/sounds/legit/left70.wav,,,,,6,14,224,26,,,,,,,,,,,,,,,left,0.302089929581,,,,,participant18,28,59.8715866105,M,trial,2017_May_29_1705,
,,0.23,"[0, 0]",/sounds/legit/equal.wav,,,,,6,15,225,1,,,,,,,,,,,,,,,left,1.77171421051,,,,,participant18,28,59.8715866105,M,trial,2017_May_29_1705,
,,0.49,"[-6.75, 0]",/sounds/legit/left100.wav,,,,,6,16,226,33,,,,,,,,,,,,,,,left,0.619314193726,,,,,participant18,28,59.8715866105,M,trial,2017_May_29_1705,
,,0.49,"[0, 0]",/sounds/legit/equal.wav,,,,,6,17,227,3,,,,,,,,,,,,,,,left,1.27045989037,,,,,participant18,28,59.8715866105,M,trial,2017_May_29_1705,
,,0.1,"[-2.25, 0]",/sounds/legit/left35.wav,,,,,6,18,228,20,,,,,,,,,,,,,,,left,0.418817996979,,,,,participant18,28,59.8715866105,M,trial,2017_May_29_1705,
,,0.36,"[-4.5, 0]",/sounds/legit/left70.wav,,,,,6,19,229,27,,,,,,,,,,,,,,,left,1.05358409882,,,,,participant18,28,59.8715866105,M,trial,2017_May_29_1705,
,,0.62,"[-6.75, 0]",/sounds/legit/left100.wav,,,,,6,20,230,34,,,,,,,,,,,,,,,left,2.25583004951,,,,,participant18,28,59.8715866105,M,trial,2017_May_29_1705,
,,0.1,"[0, 0]",/sounds/legit/equal.wav,,,,,6,21,231,0,,,,,,,,,,,,,,,left,0.619071006775,,,,,participant18,28,59.8715866105,M,trial,2017_May_29_1705,
,,0.62,"[6.75, 0]",/sounds/legit/right100.wav,,,,,6,22,232,19,,,,,,,,,,,,,,,right,0.284207820892,,,,,participant18,28,59.8715866105,M,trial,2017_May_29_1705,
,,0.36,"[-2.25, 0]",/sounds/legit/left35.wav,,,,,6,23,233,22,,,,,,,,,,,,,,,left,0.302175045013,,,,,participant18,28,59.8715866105,M,trial,2017_May_29_1705,
,,0.36,"[0, 0]",/sounds/legit/equal.wav,,,,,6,24,234,2,,,,,,,,,,,,,,,left,0.385207891464,,,,,participant18,28,59.8715866105,M,trial,2017_May_29_1705,
,,0.36,"[2.25, 0]",/sounds/legit/right35.wav,,,,,6,25,235,7,,,,,,,,,,,,,,,right,0.235049962997,,,,,participant18,28,59.8715866105,M,trial,2017_May_29_1705,
,,0.1,"[2.25, 0]",/sounds/legit/right35.wav,,,,,6,26,236,5,,,,,,,,,,,,,,,right,0.185189008713,,,,,participant18,28,59.8715866105,M,trial,2017_May_29_1705,
,,0.49,"[-2.25, 0]",/sounds/legit/left35.wav,,,,,6,27,237,23,,,,,,,,,,,,,,,left,0.853160142899,,,,,participant18,28,59.8715866105,M,trial,2017_May_29_1705,
,,0.1,"[4.5, 0]",/sounds/legit/right70.wav,,,,,6,28,238,10,,,,,,,,,,,,,,,right,0.335266113281,,,,,participant18,28,59.8715866105,M,trial,2017_May_29_1705,
,,0.23,"[4.5, 0]",/sounds/legit/right70.wav,,,,,6,29,239,11,,,,,,,,,,,,,,,right,2.69067215919,,,,,participant18,28,59.8715866105,M,trial,2017_May_29_1705,
,,0.23,"[-6.75, 0]",/sounds/legit/left100.wav,,,,,6,30,240,31,,,,,,,,,,,,,,,left,0.0178501605988,,,,,participant18,28,59.8715866105,M,trial,2017_May_29_1705,
,,0.23,"[2.25, 0]",/sounds/legit/right35.wav,,,,,6,31,241,6,,,,,,,,,,,,,,,right,2.44006609917,,,,,participant18,28,59.8715866105,M,trial,2017_May_29_1705,
,,0.23,"[-2.25, 0]",/sounds/legit/left35.wav,,,,,6,32,242,21,,,,,,,,,,,,,,,left,0.00140309333801,,,,,participant18,28,59.8715866105,M,trial,2017_May_29_1705,
,,0.49,"[6.75, 0]",/sounds/legit/right100.wav,,,,,6,33,243,18,,,,,,,,,,,,,,,right,0.134927034378,,,,,participant18,28,59.8715866105,M,trial,2017_May_29_1705,
,,0.49,"[2.25, 0]",/sounds/legit/right35.wav,,,,,6,34,244,8,,,,,,,,,,,,,,,right,0.118445158005,,,,,participant18,28,59.8715866105,M,trial,2017_May_29_1705,
,,0.62,"[0, 0]",/sounds/legit/equal.wav,,,,,7,0,245,4,,,,,,,,,,,,,,,left,0.402544975281,,,,,participant18,28,59.8715866105,M,trial,2017_May_29_1705,
,,0.1,"[-6.75, 0]",/sounds/legit/left100.wav,,,,,7,1,246,30,,,,,,,,,,,,,,,left,0.602615833282,,,,,participant18,28,59.8715866105,M,trial,2017_May_29_1705,
,,0.23,"[2.25, 0]",/sounds/legit/right35.wav,,,,,7,2,247,6,,,,,,,,,,,,,,,right,0.185086011887,,,,,participant18,28,59.8715866105,M,trial,2017_May_29_1705,
,,0.1,"[4.5, 0]",/sounds/legit/right70.wav,,,,,7,3,248,10,,,,,,,,,,,,,,,right,0.301898002625,,,,,participant18,28,59.8715866105,M,trial,2017_May_29_1705,
,,0.62,"[-4.5, 0]",/sounds/legit/left70.wav,,,,,7,4,249,29,,,,,,,,,,,,,,,left,0.351896047592,,,,,participant18,28,59.8715866105,M,trial,2017_May_29_1705,
,,0.36,"[2.25, 0]",/sounds/legit/right35.wav,,,,,7,5,250,7,,,,,,,,,,,,,,,right,0.251775026321,,,,,participant18,28,59.8715866105,M,trial,2017_May_29_1705,
,,0.23,"[4.5, 0]",/sounds/legit/right70.wav,,,,,7,6,251,11,,,,,,,,,,,,,,,right,0.302250146866,,,,,participant18,28,59.8715866105,M,trial,2017_May_29_1705,
,,0.62,"[6.75, 0]",/sounds/legit/right100.wav,,,,,7,7,252,19,,,,,,,,,,,,,,,right,0.201627969742,,,,,participant18,28,59.8715866105,M,trial,2017_May_29_1705,
,,0.49,"[6.75, 0]",/sounds/legit/right100.wav,,,,,7,8,253,18,,,,,,,,,,,,,,,right,0.251635074615,,,,,participant18,28,59.8715866105,M,trial,2017_May_29_1705,
,,0.62,"[4.5, 0]",/sounds/legit/right70.wav,,,,,7,9,254,14,,,,,,,,,,,,,,,right,0.184251070023,,,,,participant18,28,59.8715866105,M,trial,2017_May_29_1705,
,,0.62,"[-6.75, 0]",/sounds/legit/left100.wav,,,,,7,10,255,34,,,,,,,,,,,,,,,left,0.317764997482,,,,,participant18,28,59.8715866105,M,trial,2017_May_29_1705,
,,0.49,"[2.25, 0]",/sounds/legit/right35.wav,,,,,7,11,256,8,,,,,,,,,,,,,,,right,0.35216999054,,,,,participant18,28,59.8715866105,M,trial,2017_May_29_1705,
,,0.36,"[0, 0]",/sounds/legit/equal.wav,,,,,7,12,257,2,,,,,,,,,,,,,,,left,0.285177946091,,,,,participant18,28,59.8715866105,M,trial,2017_May_29_1705,
,,0.36,"[4.5, 0]",/sounds/legit/right70.wav,,,,,7,13,258,12,,,,,,,,,,,,,,,right,0.235259056091,,,,,participant18,28,59.8715866105,M,trial,2017_May_29_1705,
,,0.49,"[-2.25, 0]",/sounds/legit/left35.wav,,,,,7,14,259,23,,,,,,,,,,,,,,,left,0.452179908752,,,,,participant18,28,59.8715866105,M,trial,2017_May_29_1705,
,,0.36,"[-4.5, 0]",/sounds/legit/left70.wav,,,,,7,15,260,27,,,,,,,,,,,,,,,left,0.251723051071,,,,,participant18,28,59.8715866105,M,trial,2017_May_29_1705,
,,0.1,"[2.25, 0]",/sounds/legit/right35.wav,,,,,7,16,261,5,,,,,,,,,,,,,,,right,0.435730934143,,,,,participant18,28,59.8715866105,M,trial,2017_May_29_1705,
,,0.1,"[-4.5, 0]",/sounds/legit/left70.wav,,,,,7,17,262,25,,,,,,,,,,,,,,,left,0.268835067749,,,,,participant18,28,59.8715866105,M,trial,2017_May_29_1705,
,,0.49,"[-6.75, 0]",/sounds/legit/left100.wav,,,,,7,18,263,33,,,,,,,,,,,,,,,left,0.1516020298,,,,,participant18,28,59.8715866105,M,trial,2017_May_29_1705,
,,0.49,"[0, 0]",/sounds/legit/equal.wav,,,,,7,19,264,3,,,,,,,,,,,,,,,left,0.903219938278,,,,,participant18,28,59.8715866105,M,trial,2017_May_29_1705,
,,0.1,"[0, 0]",/sounds/legit/equal.wav,,,,,7,20,265,0,,,,,,,,,,,,,,,left,0.602522850037,,,,,participant18,28,59.8715866105,M,trial,2017_May_29_1705,
,,0.23,"[0, 0]",/sounds/legit/equal.wav,,,,,7,21,266,1,,,,,,,,,,,,,,,left,0.370235919952,,,,,participant18,28,59.8715866105,M,trial,2017_May_29_1705,
,,0.36,"[6.75, 0]",/sounds/legit/right100.wav,,,,,7,22,267,17,,,,,,,,,,,,,,,right,0.368588924408,,,,,participant18,28,59.8715866105,M,trial,2017_May_29_1705,
,,0.23,"[-4.5, 0]",/sounds/legit/left70.wav,,,,,7,23,268,26,,,,,,,,,,,,,,,left,0.401376008987,,,,,participant18,28,59.8715866105,M,trial,2017_May_29_1705,
,,0.49,"[4.5, 0]",/sounds/legit/right70.wav,,,,,7,24,269,13,,,,,,,,,,,,,,,right,0.135056972504,,,,,participant18,28,59.8715866105,M,trial,2017_May_29_1705,
,,0.23,"[-6.75, 0]",/sounds/legit/left100.wav,,,,,7,25,270,31,,,,,,,,,,,,,,,left,0.318883180618,,,,,participant18,28,59.8715866105,M,trial,2017_May_29_1705,
,,0.23,"[-2.25, 0]",/sounds/legit/left35.wav,,,,,7,26,271,21,,,,,,,,,,,,,,,left,0.869802951813,,,,,participant18,28,59.8715866105,M,trial,2017_May_29_1705,
,,0.36,"[-2.25, 0]",/sounds/legit/left35.wav,,,,,7,27,272,22,,,,,,,,,,,,,,,left,0.335416078568,,,,,participant18,28,59.8715866105,M,trial,2017_May_29_1705,
,,0.62,"[-2.25, 0]",/sounds/legit/left35.wav,,,,,7,28,273,24,,,,,,,,,,,,,,,left,0.368719816208,,,,,participant18,28,59.8715866105,M,trial,2017_May_29_1705,
,,0.23,"[6.75, 0]",/sounds/legit/right100.wav,,,,,7,29,274,16,,,,,,,,,,,,,,,right,1.42122483253,,,,,participant18,28,59.8715866105,M,trial,2017_May_29_1705,
,,0.36,"[-6.75, 0]",/sounds/legit/left100.wav,,,,,7,30,275,32,,,,,,,,,,,,,,,left,0.921168088913,,,,,participant18,28,59.8715866105,M,trial,2017_May_29_1705,
,,0.62,"[2.25, 0]",/sounds/legit/right35.wav,,,,,7,31,276,9,,,,,,,,,,,,,,,right,2.08909797668,,,,,participant18,28,59.8715866105,M,trial,2017_May_29_1705,
,,0.49,"[-4.5, 0]",/sounds/legit/left70.wav,,,,,7,32,277,28,,,,,,,,,,,,,,,left,1.05357789993,,,,,participant18,28,59.8715866105,M,trial,2017_May_29_1705,
,,0.1,"[6.75, 0]",/sounds/legit/right100.wav,,,,,7,33,278,15,,,,,,,,,,,,,,,right,0.0847101211548,,,,,participant18,28,59.8715866105,M,trial,2017_May_29_1705,
,,0.1,"[-2.25, 0]",/sounds/legit/left35.wav,,,,,7,34,279,20,,,,,,,,,,,,,,,left,0.385735034943,,,,,participant18,28,59.8715866105,M,trial,2017_May_29_1705,
,,0.62,"[4.5, 0]",/sounds/legit/right70.wav,,,,,8,0,280,14,,,,,,,,,,,,,,,right,0.318868875504,,,,,participant18,28,59.8715866105,M,trial,2017_May_29_1705,
,,0.1,"[-4.5, 0]",/sounds/legit/left70.wav,,,,,8,1,281,25,,,,,,,,,,,,,,,left,0.268430948257,,,,,participant18,28,59.8715866105,M,trial,2017_May_29_1705,
,,0.36,"[-6.75, 0]",/sounds/legit/left100.wav,,,,,8,2,282,32,,,,,,,,,,,,,,,left,0.468797922134,,,,,participant18,28,59.8715866105,M,trial,2017_May_29_1705,
,,0.1,"[-6.75, 0]",/sounds/legit/left100.wav,,,,,8,3,283,30,,,,,,,,,,,,,,,left,1.8051378727,,,,,participant18,28,59.8715866105,M,trial,2017_May_29_1705,
,,0.23,"[6.75, 0]",/sounds/legit/right100.wav,,,,,8,4,284,16,,,,,,,,,,,,,,,right,1.48789310455,,,,,participant18,28,59.8715866105,M,trial,2017_May_29_1705,
,,0.1,"[2.25, 0]",/sounds/legit/right35.wav,,,,,8,5,285,5,,,,,,,,,,,,,,,right,1.92206096649,,,,,participant18,28,59.8715866105,M,trial,2017_May_29_1705,
,,0.23,"[4.5, 0]",/sounds/legit/right70.wav,,,,,8,6,286,11,,,,,,,,,,,,,,,right,0.953285932541,,,,,participant18,28,59.8715866105,M,trial,2017_May_29_1705,
,,0.1,"[6.75, 0]",/sounds/legit/right100.wav,,,,,8,7,287,15,,,,,,,,,,,,,,,right,0.351829051971,,,,,participant18,28,59.8715866105,M,trial,2017_May_29_1705,
,,0.49,"[-6.75, 0]",/sounds/legit/left100.wav,,,,,8,8,288,33,,,,,,,,,,,,,,,left,0.285562992096,,,,,participant18,28,59.8715866105,M,trial,2017_May_29_1705,
,,0.36,"[6.75, 0]",/sounds/legit/right100.wav,,,,,8,9,289,17,,,,,,,,,,,,,,,left,1.87181401253,,,,,participant18,28,59.8715866105,M,trial,2017_May_29_1705,
,,0.49,"[6.75, 0]",/sounds/legit/right100.wav,,,,,8,10,290,18,,,,,,,,,,,,,,,right,0.151414871216,,,,,participant18,28,59.8715866105,M,trial,2017_May_29_1705,
,,0.62,"[2.25, 0]",/sounds/legit/right35.wav,,,,,8,11,291,9,,,,,,,,,,,,,,,right,0.318556070328,,,,,participant18,28,59.8715866105,M,trial,2017_May_29_1705,
,,0.36,"[0, 0]",/sounds/legit/equal.wav,,,,,8,12,292,2,,,,,,,,,,,,,,,right,2.2061009407,,,,,participant18,28,59.8715866105,M,trial,2017_May_29_1705,
,,0.23,"[2.25, 0]",/sounds/legit/right35.wav,,,,,8,13,293,6,,,,,,,,,,,,,,,right,0.168398141861,,,,,participant18,28,59.8715866105,M,trial,2017_May_29_1705,
,,0.36,"[2.25, 0]",/sounds/legit/right35.wav,,,,,8,14,294,7,,,,,,,,,,,,,,,right,0.28514289856,,,,,participant18,28,59.8715866105,M,trial,2017_May_29_1705,
,,0.49,"[2.25, 0]",/sounds/legit/right35.wav,,,,,8,15,295,8,,,,,,,,,,,,,,,right,0.352155923843,,,,,participant18,28,59.8715866105,M,trial,2017_May_29_1705,
,,0.49,"[-4.5, 0]",/sounds/legit/left70.wav,,,,,8,16,296,28,,,,,,,,,,,,,,,left,0.235241889954,,,,,participant18,28,59.8715866105,M,trial,2017_May_29_1705,
,,0.23,"[-4.5, 0]",/sounds/legit/left70.wav,,,,,8,17,297,26,,,,,,,,,,,,,,,left,0.320145845413,,,,,participant18,28,59.8715866105,M,trial,2017_May_29_1705,
,,0.49,"[0, 0]",/sounds/legit/equal.wav,,,,,8,18,298,3,,,,,,,,,,,,,,,left,0.36879491806,,,,,participant18,28,59.8715866105,M,trial,2017_May_29_1705,
,,0.49,"[4.5, 0]",/sounds/legit/right70.wav,,,,,8,19,299,13,,,,,,,,,,,,,,,right,0.268640041351,,,,,participant18,28,59.8715866105,M,trial,2017_May_29_1705,
,,0.23,"[-2.25, 0]",/sounds/legit/left35.wav,,,,,8,20,300,21,,,,,,,,,,,,,,,left,0.235289096832,,,,,participant18,28,59.8715866105,M,trial,2017_May_29_1705,
,,0.36,"[-4.5, 0]",/sounds/legit/left70.wav,,,,,8,21,301,27,,,,,,,,,,,,,,,left,0.201794147491,,,,,participant18,28,59.8715866105,M,trial,2017_May_29_1705,
,,0.1,"[0, 0]",/sounds/legit/equal.wav,,,,,8,22,302,0,,,,,,,,,,,,,,,left,0.184859991074,,,,,participant18,28,59.8715866105,M,trial,2017_May_29_1705,
,,0.62,"[-2.25, 0]",/sounds/legit/left35.wav,,,,,8,23,303,24,,,,,,,,,,,,,,,left,0.335402965546,,,,,participant18,28,59.8715866105,M,trial,2017_May_29_1705,
,,0.1,"[-2.25, 0]",/sounds/legit/left35.wav,,,,,8,24,304,20,,,,,,,,,,,,,,,left,0.185016870499,,,,,participant18,28,59.8715866105,M,trial,2017_May_29_1705,
,,0.62,"[-6.75, 0]",/sounds/legit/left100.wav,,,,,8,25,305,34,,,,,,,,,,,,,,,left,0.317668914795,,,,,participant18,28,59.8715866105,M,trial,2017_May_29_1705,
,,0.62,"[0, 0]",/sounds/legit/equal.wav,,,,,8,26,306,4,,,,,,,,,,,,,,,left,0.31868481636,,,,,participant18,28,59.8715866105,M,trial,2017_May_29_1705,
,,0.62,"[-4.5, 0]",/sounds/legit/left70.wav,,,,,8,27,307,29,,,,,,,,,,,,,,,left,0.0681571960449,,,,,participant18,28,59.8715866105,M,trial,2017_May_29_1705,
,,0.62,"[6.75, 0]",/sounds/legit/right100.wav,,,,,8,28,308,19,,,,,,,,,,,,,,,right,0.184927940369,,,,,participant18,28,59.8715866105,M,trial,2017_May_29_1705,
,,0.36,"[4.5, 0]",/sounds/legit/right70.wav,,,,,8,29,309,12,,,,,,,,,,,,,,,right,2.8076839447,,,,,participant18,28,59.8715866105,M,trial,2017_May_29_1705,
,,0.23,"[-6.75, 0]",/sounds/legit/left100.wav,,,,,8,30,310,31,,,,,,,,,,,,,,,left,0.118134975433,,,,,participant18,28,59.8715866105,M,trial,2017_May_29_1705,
,,0.1,"[4.5, 0]",/sounds/legit/right70.wav,,,,,8,31,311,10,,,,,,,,,,,,,,,right,0.201662063599,,,,,participant18,28,59.8715866105,M,trial,2017_May_29_1705,
,,0.49,"[-2.25, 0]",/sounds/legit/left35.wav,,,,,8,32,312,23,,,,,,,,,,,,,,,left,0.35120177269,,,,,participant18,28,59.8715866105,M,trial,2017_May_29_1705,
,,0.36,"[-2.25, 0]",/sounds/legit/left35.wav,,,,,8,33,313,22,,,,,,,,,,,,,,,left,0.669490098953,,,,,participant18,28,59.8715866105,M,trial,2017_May_29_1705,
,,0.23,"[0, 0]",/sounds/legit/equal.wav,,,,,8,34,314,1,,,,,,,,,,,,,,,left,0.619584083557,,,,,participant18,28,59.8715866105,M,trial,2017_May_29_1705,
,,0.36,"[-6.75, 0]",/sounds/legit/left100.wav,,,,,9,0,315,32,,,,,,,,,,,,,,,left,0.385318994522,,,,,participant18,28,59.8715866105,M,trial,2017_May_29_1705,
,,0.23,"[6.75, 0]",/sounds/legit/right100.wav,,,,,9,1,316,16,,,,,,,,,,,,,,,right,0.201565980911,,,,,participant18,28,59.8715866105,M,trial,2017_May_29_1705,
,,0.36,"[6.75, 0]",/sounds/legit/right100.wav,,,,,9,2,317,17,,,,,,,,,,,,,,,right,0.769608020782,,,,,participant18,28,59.8715866105,M,trial,2017_May_29_1705,
,,0.1,"[-2.25, 0]",/sounds/legit/left35.wav,,,,,9,3,318,20,,,,,,,,,,,,,,,left,0.151544094086,,,,,participant18,28,59.8715866105,M,trial,2017_May_29_1705,
,,0.49,"[-4.5, 0]",/sounds/legit/left70.wav,,,,,9,4,319,28,,,,,,,,,,,,,,,left,0.335341930389,,,,,participant18,28,59.8715866105,M,trial,2017_May_29_1705,
,,0.1,"[4.5, 0]",/sounds/legit/right70.wav,,,,,9,5,320,10,,,,,,,,,,,,,,,right,0.318691968918,,,,,participant18,28,59.8715866105,M,trial,2017_May_29_1705,
,,0.49,"[0, 0]",/sounds/legit/equal.wav,,,,,9,6,321,3,,,,,,,,,,,,,,,left,0.402325868607,,,,,participant18,28,59.8715866105,M,trial,2017_May_29_1705,
,,0.49,"[-6.75, 0]",/sounds/legit/left100.wav,,,,,9,7,322,33,,,,,,,,,,,,,,,left,2.0892560482,,,,,participant18,28,59.8715866105,M,trial,2017_May_29_1705,
,,0.62,"[4.5, 0]",/sounds/legit/right70.wav,,,,,9,8,323,14,,,,,,,,,,,,,,,right,0.53585100174,,,,,participant18,28,59.8715866105,M,trial,2017_May_29_1705,
,,0.62,"[-6.75, 0]",/sounds/legit/left100.wav,,,,,9,9,324,34,,,,,,,,,,,,,,,left,0.251178979874,,,,,participant18,28,59.8715866105,M,trial,2017_May_29_1705,
,,0.62,"[-4.5, 0]",/sounds/legit/left70.wav,,,,,9,10,325,29,,,,,,,,,,,,,,,right,0.686120033264,,,,,participant18,28,59.8715866105,M,trial,2017_May_29_1705,
,,0.62,"[2.25, 0]",/sounds/legit/right35.wav,,,,,9,11,326,9,,,,,,,,,,,,,,,right,0.251922130585,,,,,participant18,28,59.8715866105,M,trial,2017_May_29_1705,
,,0.36,"[2.25, 0]",/sounds/legit/right35.wav,,,,,9,12,327,7,,,,,,,,,,,,,,,right,0.452273845673,,,,,participant18,28,59.8715866105,M,trial,2017_May_29_1705,
,,0.23,"[-6.75, 0]",/sounds/legit/left100.wav,,,,,9,13,328,31,,,,,,,,,,,,,,,left,0.319838047028,,,,,participant18,28,59.8715866105,M,trial,2017_May_29_1705,
,,0.62,"[0, 0]",/sounds/legit/equal.wav,,,,,9,14,329,4,,,,,,,,,,,,,,,left,0.636241912842,,,,,participant18,28,59.8715866105,M,trial,2017_May_29_1705,
,,0.49,"[2.25, 0]",/sounds/legit/right35.wav,,,,,9,15,330,8,,,,,,,,,,,,,,,right,0.435724973679,,,,,participant18,28,59.8715866105,M,trial,2017_May_29_1705,
,,0.36,"[4.5, 0]",/sounds/legit/right70.wav,,,,,9,16,331,12,,,,,,,,,,,,,,,right,0.485404014587,,,,,participant18,28,59.8715866105,M,trial,2017_May_29_1705,
,,0.62,"[-2.25, 0]",/sounds/legit/left35.wav,,,,,9,17,332,24,,,,,,,,,,,,,,,left,0.36896109581,,,,,participant18,28,59.8715866105,M,trial,2017_May_29_1705,
,,0.1,"[-6.75, 0]",/sounds/legit/left100.wav,,,,,9,18,333,30,,,,,,,,,,,,,,,left,0.518948078156,,,,,participant18,28,59.8715866105,M,trial,2017_May_29_1705,
,,0.23,"[4.5, 0]",/sounds/legit/right70.wav,,,,,9,19,334,11,,,,,,,,,,,,,,,right,0.55270409584,,,,,participant18,28,59.8715866105,M,trial,2017_May_29_1705,
,,0.36,"[-4.5, 0]",/sounds/legit/left70.wav,,,,,9,20,335,27,,,,,,,,,,,,,,,left,0.352157831192,,,,,participant18,28,59.8715866105,M,trial,2017_May_29_1705,
,,0.1,"[0, 0]",/sounds/legit/equal.wav,,,,,9,21,336,0,,,,,,,,,,,,,,,left,0.452486991882,,,,,participant18,28,59.8715866105,M,trial,2017_May_29_1705,
,,0.36,"[-2.25, 0]",/sounds/legit/left35.wav,,,,,9,22,337,22,,,,,,,,,,,,,,,left,0.134912967682,,,,,participant18,28,59.8715866105,M,trial,2017_May_29_1705,
,,0.36,"[0, 0]",/sounds/legit/equal.wav,,,,,9,23,338,2,,,,,,,,,,,,,,,left,0.301988124847,,,,,participant18,28,59.8715866105,M,trial,2017_May_29_1705,
,,0.1,"[2.25, 0]",/sounds/legit/right35.wav,,,,,9,24,339,5,,,,,,,,,,,,,,,right,0.151645898819,,,,,participant18,28,59.8715866105,M,trial,2017_May_29_1705,
,,0.49,"[4.5, 0]",/sounds/legit/right70.wav,,,,,9,25,340,13,,,,,,,,,,,,,,,right,0.252062797546,,,,,participant18,28,59.8715866105,M,trial,2017_May_29_1705,
,,0.23,"[2.25, 0]",/sounds/legit/right35.wav,,,,,9,26,341,6,,,,,,,,,,,,,,,right,0.201745986938,,,,,participant18,28,59.8715866105,M,trial,2017_May_29_1705,
,,0.49,"[6.75, 0]",/sounds/legit/right100.wav,,,,,9,27,342,18,,,,,,,,,,,,,,,right,0.135004043579,,,,,participant18,28,59.8715866105,M,trial,2017_May_29_1705,
,,0.23,"[0, 0]",/sounds/legit/equal.wav,,,,,9,28,343,1,,,,,,,,,,,,,,,left,0.519093990326,,,,,participant18,28,59.8715866105,M,trial,2017_May_29_1705,
,,0.1,"[-4.5, 0]",/sounds/legit/left70.wav,,,,,9,29,344,25,,,,,,,,,,,,,,,left,0.318812131882,,,,,participant18,28,59.8715866105,M,trial,2017_May_29_1705,
,,0.62,"[6.75, 0]",/sounds/legit/right100.wav,,,,,9,30,345,19,,,,,,,,,,,,,,,right,0.301871061325,,,,,participant18,28,59.8715866105,M,trial,2017_May_29_1705,
,,0.1,"[6.75, 0]",/sounds/legit/right100.wav,,,,,9,31,346,15,,,,,,,,,,,,,,,right,0.185073852539,,,,,participant18,28,59.8715866105,M,trial,2017_May_29_1705,
,,0.23,"[-2.25, 0]",/sounds/legit/left35.wav,,,,,9,32,347,21,,,,,,,,,,,,,,,left,0.367896080017,,,,,participant18,28,59.8715866105,M,trial,2017_May_29_1705,
,,0.23,"[-4.5, 0]",/sounds/legit/left70.wav,,,,,9,33,348,26,,,,,,,,,,,,,,,left,0.351979970932,,,,,participant18,28,59.8715866105,M,trial,2017_May_29_1705,
,,0.49,"[-2.25, 0]",/sounds/legit/left35.wav,,,,,9,34,349,23,,,,,,,,,,,,,,,left,0.386676073074,,,,,participant18,28,59.8715866105,M,trial,2017_May_29_1705,
,,,,,,,,,,,,,,,,,,,,,,,,,,,,,space,17.0048971176,,,participant18,28,59.8715866105,M,trial,2017_May_29_1705,
,,0.36,"[6.75, 0]",/sounds/legit/right100.wav,,,,,,,,,0,0,0,17,,,,,,,,,,,,,,,right,0.384587049484,participant18,28,59.8715866105,M,trial,2017_May_29_1705,
,,0.36,"[-4.5, 0]",/sounds/legit/left70.wav,,,,,,,,,0,1,1,27,,,,,,,,,,,,,,,left,0.970113039017,participant18,28,59.8715866105,M,trial,2017_May_29_1705,
,,0.49,"[-4.5, 0]",/sounds/legit/left70.wav,,,,,,,,,0,2,2,28,,,,,,,,,,,,,,,left,0.435599803925,participant18,28,59.8715866105,M,trial,2017_May_29_1705,
,,0.1,"[-6.75, 0]",/sounds/legit/left100.wav,,,,,,,,,0,3,3,30,,,,,,,,,,,,,,,left,0.251956939697,participant18,28,59.8715866105,M,trial,2017_May_29_1705,
,,0.62,"[6.75, 0]",/sounds/legit/right100.wav,,,,,,,,,0,4,4,19,,,,,,,,,,,,,,,right,0.2017390728,participant18,28,59.8715866105,M,trial,2017_May_29_1705,
,,0.62,"[-2.25, 0]",/sounds/legit/left35.wav,,,,,,,,,0,5,5,24,,,,,,,,,,,,,,,left,0.469080924988,participant18,28,59.8715866105,M,trial,2017_May_29_1705,
,,0.49,"[-6.75, 0]",/sounds/legit/left100.wav,,,,,,,,,0,6,6,33,,,,,,,,,,,,,,,left,0.235230922699,participant18,28,59.8715866105,M,trial,2017_May_29_1705,
,,0.36,"[-2.25, 0]",/sounds/legit/left35.wav,,,,,,,,,0,7,7,22,,,,,,,,,,,,,,,left,0.235170841217,participant18,28,59.8715866105,M,trial,2017_May_29_1705,
,,0.23,"[-4.5, 0]",/sounds/legit/left70.wav,,,,,,,,,0,8,8,26,,,,,,,,,,,,,,,left,0.151667118073,participant18,28,59.8715866105,M,trial,2017_May_29_1705,
,,0.62,"[0, 0]",/sounds/legit/equal.wav,,,,,,,,,0,9,9,4,,,,,,,,,,,,,,,left,0.519130945206,participant18,28,59.8715866105,M,trial,2017_May_29_1705,
,,0.1,"[4.5, 0]",/sounds/legit/right70.wav,,,,,,,,,0,10,10,10,,,,,,,,,,,,,,,right,0.402307987213,participant18,28,59.8715866105,M,trial,2017_May_29_1705,
,,0.62,"[4.5, 0]",/sounds/legit/right70.wav,,,,,,,,,0,11,11,14,,,,,,,,,,,,,,,right,0.368811845779,participant18,28,59.8715866105,M,trial,2017_May_29_1705,
,,0.36,"[4.5, 0]",/sounds/legit/right70.wav,,,,,,,,,0,12,12,12,,,,,,,,,,,,,,,right,0.268609046936,participant18,28,59.8715866105,M,trial,2017_May_29_1705,
,,0.62,"[-2.25, 0]",/sounds/legit/left35.wav,,,,,,,,,0,13,13,24,,,,,,,,,,,,,,,left,0.602496862411,participant18,28,59.8715866105,M,trial,2017_May_29_1705,
,,0.49,"[-6.75, 0]",/sounds/legit/left100.wav,,,,,,,,,0,14,14,33,,,,,,,,,,,,,,,left,1.07027411461,participant18,28,59.8715866105,M,trial,2017_May_29_1705,
,,0.1,"[6.75, 0]",/sounds/legit/right100.wav,,,,,,,,,0,15,15,15,,,,,,,,,,,,,,,right,0.31903386116,participant18,28,59.8715866105,M,trial,2017_May_29_1705,
,,0.1,"[4.5, 0]",/sounds/legit/right70.wav,,,,,,,,,0,16,16,10,,,,,,,,,,,,,,,right,0.218458890915,participant18,28,59.8715866105,M,trial,2017_May_29_1705,
,,0.49,"[-4.5, 0]",/sounds/legit/left70.wav,,,,,,,,,0,17,17,28,,,,,,,,,,,,,,,left,0.519111871719,participant18,28,59.8715866105,M,trial,2017_May_29_1705,
,,0.1,"[4.5, 0]",/sounds/legit/right70.wav,,,,,,,,,0,18,18,10,,,,,,,,,,,,,,,right,0.251895904541,participant18,28,59.8715866105,M,trial,2017_May_29_1705,
,,0.62,"[2.25, 0]",/sounds/legit/right35.wav,,,,,,,,,0,19,19,9,,,,,,,,,,,,,,,left,1.05355811119,participant18,28,59.8715866105,M,trial,2017_May_29_1705,
,,0.62,"[-4.5, 0]",/sounds/legit/left70.wav,,,,,,,,,0,20,20,29,,,,,,,,,,,,,,,left,0.285025119781,participant18,28,59.8715866105,M,trial,2017_May_29_1705,
,,0.36,"[-2.25, 0]",/sounds/legit/left35.wav,,,,,,,,,0,21,21,22,,,,,,,,,,,,,,,left,0.235089063644,participant18,28,59.8715866105,M,trial,2017_May_29_1705,
,,0.1,"[6.75, 0]",/sounds/legit/right100.wav,,,,,,,,,0,22,22,15,,,,,,,,,,,,,,,right,0.101317882538,participant18,28,59.8715866105,M,trial,2017_May_29_1705,
,,0.36,"[0, 0]",/sounds/legit/equal.wav,,,,,,,,,0,23,23,2,,,,,,,,,,,,,,,left,0.352162122726,participant18,28,59.8715866105,M,trial,2017_May_29_1705,
,,0.49,"[-4.5, 0]",/sounds/legit/left70.wav,,,,,,,,,0,24,24,28,,,,,,,,,,,,,,,left,0.201944828033,participant18,28,59.8715866105,M,trial,2017_May_29_1705,
,,0.62,"[-6.75, 0]",/sounds/legit/left100.wav,,,,,,,,,0,25,25,34,,,,,,,,,,,,,,,left,0.251621007919,participant18,28,59.8715866105,M,trial,2017_May_29_1705,
,,0.23,"[-6.75, 0]",/sounds/legit/left100.wav,,,,,,,,,0,26,26,31,,,,,,,,,,,,,,,left,0.251976966858,participant18,28,59.8715866105,M,trial,2017_May_29_1705,
,,0.23,"[-6.75, 0]",/sounds/legit/left100.wav,,,,,,,,,0,27,27,31,,,,,,,,,,,,,,,left,0.218487977982,participant18,28,59.8715866105,M,trial,2017_May_29_1705,
,,0.36,"[4.5, 0]",/sounds/legit/right70.wav,,,,,,,,,0,28,28,12,,,,,,,,,,,,,,,right,0.0849618911743,participant18,28,59.8715866105,M,trial,2017_May_29_1705,
,,0.49,"[-2.25, 0]",/sounds/legit/left35.wav,,,,,,,,,0,29,29,23,,,,,,,,,,,,,,,left,0.402186870575,participant18,28,59.8715866105,M,trial,2017_May_29_1705,
,,0.36,"[-4.5, 0]",/sounds/legit/left70.wav,,,,,,,,,0,30,30,27,,,,,,,,,,,,,,,left,0.235212087631,participant18,28,59.8715866105,M,trial,2017_May_29_1705,
,,0.49,"[2.25, 0]",/sounds/legit/right35.wav,,,,,,,,,0,31,31,8,,,,,,,,,,,,,,,right,0.235205173492,participant18,28,59.8715866105,M,trial,2017_May_29_1705,
,,0.1,"[6.75, 0]",/sounds/legit/right100.wav,,,,,,,,,0,32,32,15,,,,,,,,,,,,,,,right,0.184895992279,participant18,28,59.8715866105,M,trial,2017_May_29_1705,
,,0.49,"[-2.25, 0]",/sounds/legit/left35.wav,,,,,,,,,0,33,33,23,,,,,,,,,,,,,,,left,0.502511024475,participant18,28,59.8715866105,M,trial,2017_May_29_1705,
,,0.1,"[-2.25, 0]",/sounds/legit/left35.wav,,,,,,,,,0,34,34,20,,,,,,,,,,,,,,,left,0.218321084976,participant18,28,59.8715866105,M,trial,2017_May_29_1705,
,,0.49,"[6.75, 0]",/sounds/legit/right100.wav,,,,,,,,,1,0,35,18,,,,,,,,,,,,,,,right,0.084883928299,participant18,28,59.8715866105,M,trial,2017_May_29_1705,
,,0.62,"[2.25, 0]",/sounds/legit/right35.wav,,,,,,,,,1,1,36,9,,,,,,,,,,,,,,,right,0.151726007462,participant18,28,59.8715866105,M,trial,2017_May_29_1705,
,,0.23,"[-4.5, 0]",/sounds/legit/left70.wav,,,,,,,,,1,2,37,26,,,,,,,,,,,,,,,left,0.134896993637,participant18,28,59.8715866105,M,trial,2017_May_29_1705,
,,0.49,"[-2.25, 0]",/sounds/legit/left35.wav,,,,,,,,,1,3,38,23,,,,,,,,,,,,,,,left,0.251856088638,participant18,28,59.8715866105,M,trial,2017_May_29_1705,
,,0.36,"[0, 0]",/sounds/legit/equal.wav,,,,,,,,,1,4,39,2,,,,,,,,,,,,,,,right,0.301968812943,participant18,28,59.8715866105,M,trial,2017_May_29_1705,
,,0.1,"[6.75, 0]",/sounds/legit/right100.wav,,,,,,,,,1,5,40,15,,,,,,,,,,,,,,,right,1.03695082664,participant18,28,59.8715866105,M,trial,2017_May_29_1705,
,,0.1,"[0, 0]",/sounds/legit/equal.wav,,,,,,,,,1,6,41,0,,,,,,,,,,,,,,,right,0.652872085571,participant18,28,59.8715866105,M,trial,2017_May_29_1705,
,,0.36,"[6.75, 0]",/sounds/legit/right100.wav,,,,,,,,,1,7,42,17,,,,,,,,,,,,,,,right,0.0346710681915,participant18,28,59.8715866105,M,trial,2017_May_29_1705,
,,0.1,"[2.25, 0]",/sounds/legit/right35.wav,,,,,,,,,1,8,43,5,,,,,,,,,,,,,,,right,1.23733592033,participant18,28,59.8715866105,M,trial,2017_May_29_1705,
,,0.1,"[-4.5, 0]",/sounds/legit/left70.wav,,,,,,,,,1,9,44,25,,,,,,,,,,,,,,,left,0.619608879089,participant18,28,59.8715866105,M,trial,2017_May_29_1705,
,,0.23,"[-2.25, 0]",/sounds/legit/left35.wav,,,,,,,,,1,10,45,21,,,,,,,,,,,,,,,left,0.552769184113,participant18,28,59.8715866105,M,trial,2017_May_29_1705,
,,0.62,"[-4.5, 0]",/sounds/legit/left70.wav,,,,,,,,,1,11,46,29,,,,,,,,,,,,,,,left,0.535853862762,participant18,28,59.8715866105,M,trial,2017_May_29_1705,
,,0.23,"[0, 0]",/sounds/legit/equal.wav,,,,,,,,,1,12,47,1,,,,,,,,,,,,,,,right,1.1202981472,participant18,28,59.8715866105,M,trial,2017_May_29_1705,
,,0.1,"[2.25, 0]",/sounds/legit/right35.wav,,,,,,,,,1,13,48,5,,,,,,,,,,,,,,,right,0.52009510994,participant18,28,59.8715866105,M,trial,2017_May_29_1705,
,,0.1,"[-6.75, 0]",/sounds/legit/left100.wav,,,,,,,,,1,14,49,30,,,,,,,,,,,,,,,left,0.469285011292,participant18,28,59.8715866105,M,trial,2017_May_29_1705,
,,0.23,"[0, 0]",/sounds/legit/equal.wav,,,,,,,,,1,15,50,1,,,,,,,,,,,,,,,right,0.51909995079,participant18,28,59.8715866105,M,trial,2017_May_29_1705,
,,0.23,"[6.75, 0]",/sounds/legit/right100.wav,,,,,,,,,1,16,51,16,,,,,,,,,,,,,,,right,0.25204706192,participant18,28,59.8715866105,M,trial,2017_May_29_1705,
,,0.62,"[4.5, 0]",/sounds/legit/right70.wav,,,,,,,,,1,17,52,14,,,,,,,,,,,,,,,right,0.402080059052,participant18,28,59.8715866105,M,trial,2017_May_29_1705,
,,0.62,"[4.5, 0]",/sounds/legit/right70.wav,,,,,,,,,1,18,53,14,,,,,,,,,,,,,,,right,0.267616987228,participant18,28,59.8715866105,M,trial,2017_May_29_1705,
,,0.36,"[-4.5, 0]",/sounds/legit/left70.wav,,,,,,,,,1,19,54,27,,,,,,,,,,,,,,,left,0.452461004257,participant18,28,59.8715866105,M,trial,2017_May_29_1705,
,,0.49,"[0, 0]",/sounds/legit/equal.wav,,,,,,,,,1,20,55,3,,,,,,,,,,,,,,,right,0.6862180233,participant18,28,59.8715866105,M,trial,2017_May_29_1705,
,,0.62,"[6.75, 0]",/sounds/legit/right100.wav,,,,,,,,,1,21,56,19,,,,,,,,,,,,,,,right,0.151604175568,participant18,28,59.8715866105,M,trial,2017_May_29_1705,
,,0.23,"[-2.25, 0]",/sounds/legit/left35.wav,,,,,,,,,1,22,57,21,,,,,,,,,,,,,,,left,0.251523017883,participant18,28,59.8715866105,M,trial,2017_May_29_1705,
,,0.36,"[-6.75, 0]",/sounds/legit/left100.wav,,,,,,,,,1,23,58,32,,,,,,,,,,,,,,,left,0.285306215286,participant18,28,59.8715866105,M,trial,2017_May_29_1705,
,,0.62,"[-2.25, 0]",/sounds/legit/left35.wav,,,,,,,,,1,24,59,24,,,,,,,,,,,,,,,left,0.352375984192,participant18,28,59.8715866105,M,trial,2017_May_29_1705,
,,0.49,"[-4.5, 0]",/sounds/legit/left70.wav,,,,,,,,,1,25,60,28,,,,,,,,,,,,,,,left,0.218509197235,participant18,28,59.8715866105,M,trial,2017_May_29_1705,
,,0.36,"[-2.25, 0]",/sounds/legit/left35.wav,,,,,,,,,1,26,61,22,,,,,,,,,,,,,,,left,0.335364103317,participant18,28,59.8715866105,M,trial,2017_May_29_1705,
,,0.62,"[-6.75, 0]",/sounds/legit/left100.wav,,,,,,,,,1,27,62,34,,,,,,,,,,,,,,,left,0.318730115891,participant18,28,59.8715866105,M,trial,2017_May_29_1705,
,,0.1,"[-2.25, 0]",/sounds/legit/left35.wav,,,,,,,,,1,28,63,20,,,,,,,,,,,,,,,left,0.251941919327,participant18,28,59.8715866105,M,trial,2017_May_29_1705,
,,0.36,"[-6.75, 0]",/sounds/legit/left100.wav,,,,,,,,,1,29,64,32,,,,,,,,,,,,,,,left,0.235204935074,participant18,28,59.8715866105,M,trial,2017_May_29_1705,
,,0.23,"[0, 0]",/sounds/legit/equal.wav,,,,,,,,,1,30,65,1,,,,,,,,,,,,,,,right,0.40212392807,participant18,28,59.8715866105,M,trial,2017_May_29_1705,
,,0.62,"[0, 0]",/sounds/legit/equal.wav,,,,,,,,,1,31,66,4,,,,,,,,,,,,,,,right,0.26872086525,participant18,28,59.8715866105,M,trial,2017_May_29_1705,
,,0.62,"[0, 0]",/sounds/legit/equal.wav,,,,,,,,,1,32,67,4,,,,,,,,,,,,,,,right,0.268252849579,participant18,28,59.8715866105,M,trial,2017_May_29_1705,
,,0.1,"[-4.5, 0]",/sounds/legit/left70.wav,,,,,,,,,1,33,68,25,,,,,,,,,,,,,,,left,0.20184803009,participant18,28,59.8715866105,M,trial,2017_May_29_1705,
,,0.49,"[4.5, 0]",/sounds/legit/right70.wav,,,,,,,,,1,34,69,13,,,,,,,,,,,,,,,right,0.318875789642,participant18,28,59.8715866105,M,trial,2017_May_29_1705,
,,0.1,"[2.25, 0]",/sounds/legit/right35.wav,,,,,,,,,2,0,70,5,,,,,,,,,,,,,,,right,0.302061080933,participant18,28,59.8715866105,M,trial,2017_May_29_1705,
,,0.62,"[-6.75, 0]",/sounds/legit/left100.wav,,,,,,,,,2,1,71,34,,,,,,,,,,,,,,,left,0.335332870483,participant18,28,59.8715866105,M,trial,2017_May_29_1705,
,,0.1,"[2.25, 0]",/sounds/legit/right35.wav,,,,,,,,,2,2,72,5,,,,,,,,,,,,,,,right,0.151396036148,participant18,28,59.8715866105,M,trial,2017_May_29_1705,
,,0.23,"[0, 0]",/sounds/legit/equal.wav,,,,,,,,,2,3,73,1,,,,,,,,,,,,,,,right,0.669589042664,participant18,28,59.8715866105,M,trial,2017_May_29_1705,
,,0.49,"[4.5, 0]",/sounds/legit/right70.wav,,,,,,,,,2,4,74,13,,,,,,,,,,,,,,,right,0.151466846466,participant18,28,59.8715866105,M,trial,2017_May_29_1705,
,,0.62,"[-4.5, 0]",/sounds/legit/left70.wav,,,,,,,,,2,5,75,29,,,,,,,,,,,,,,,left,0.803065061569,participant18,28,59.8715866105,M,trial,2017_May_29_1705,
,,0.1,"[0, 0]",/sounds/legit/equal.wav,,,,,,,,,2,6,76,0,,,,,,,,,,,,,,,left,0.469252109528,participant18,28,59.8715866105,M,trial,2017_May_29_1705,
,,0.1,"[-4.5, 0]",/sounds/legit/left70.wav,,,,,,,,,2,7,77,25,,,,,,,,,,,,,,,left,0.21847987175,participant18,28,59.8715866105,M,trial,2017_May_29_1705,
,,0.23,"[6.75, 0]",/sounds/legit/right100.wav,,,,,,,,,2,8,78,16,,,,,,,,,,,,,,,right,0.101624011993,participant18,28,59.8715866105,M,trial,2017_May_29_1705,
,,0.36,"[6.75, 0]",/sounds/legit/right100.wav,,,,,,,,,2,9,79,17,,,,,,,,,,,,,,,right,0.101513147354,participant18,28,59.8715866105,M,trial,2017_May_29_1705,
,,0.62,"[-4.5, 0]",/sounds/legit/left70.wav,,,,,,,,,2,10,80,29,,,,,,,,,,,,,,,left,0.302168130875,participant18,28,59.8715866105,M,trial,2017_May_29_1705,
,,0.1,"[-6.75, 0]",/sounds/legit/left100.wav,,,,,,,,,2,11,81,30,,,,,,,,,,,,,,,left,0.201810121536,participant18,28,59.8715866105,M,trial,2017_May_29_1705,
,,0.1,"[0, 0]",/sounds/legit/equal.wav,,,,,,,,,2,12,82,0,,,,,,,,,,,,,,,right,0.485800027847,participant18,28,59.8715866105,M,trial,2017_May_29_1705,
,,0.1,"[-2.25, 0]",/sounds/legit/left35.wav,,,,,,,,,2,13,83,20,,,,,,,,,,,,,,,left,0.485470056534,participant18,28,59.8715866105,M,trial,2017_May_29_1705,
,,0.62,"[6.75, 0]",/sounds/legit/right100.wav,,,,,,,,,2,14,84,19,,,,,,,,,,,,,,,right,0.00122404098511,participant18,28,59.8715866105,M,trial,2017_May_29_1705,
,,0.49,"[4.5, 0]",/sounds/legit/right70.wav,,,,,,,,,2,15,85,13,,,,,,,,,,,,,,,left,1.80501580238,participant18,28,59.8715866105,M,trial,2017_May_29_1705,
,,0.23,"[-4.5, 0]",/sounds/legit/left70.wav,,,,,,,,,2,16,86,26,,,,,,,,,,,,,,,left,0.251978874207,participant18,28,59.8715866105,M,trial,2017_May_29_1705,
,,0.23,"[4.5, 0]",/sounds/legit/right70.wav,,,,,,,,,2,17,87,11,,,,,,,,,,,,,,,right,0.235296964645,participant18,28,59.8715866105,M,trial,2017_May_29_1705,
,,0.23,"[4.5, 0]",/sounds/legit/right70.wav,,,,,,,,,2,18,88,11,,,,,,,,,,,,,,,right,0.301020860672,participant18,28,59.8715866105,M,trial,2017_May_29_1705,
,,0.36,"[-4.5, 0]",/sounds/legit/left70.wav,,,,,,,,,2,19,89,27,,,,,,,,,,,,,,,left,0.218611001968,participant18,28,59.8715866105,M,trial,2017_May_29_1705,
,,0.49,"[0, 0]",/sounds/legit/equal.wav,,,,,,,,,2,20,90,3,,,,,,,,,,,,,,,right,0.519181013107,participant18,28,59.8715866105,M,trial,2017_May_29_1705,
,,0.62,"[2.25, 0]",/sounds/legit/right35.wav,,,,,,,,,2,21,91,9,,,,,,,,,,,,,,,left,0.251971006393,participant18,28,59.8715866105,M,trial,2017_May_29_1705,
,,0.49,"[2.25, 0]",/sounds/legit/right35.wav,,,,,,,,,2,22,92,8,,,,,,,,,,,,,,,right,0.20185303688,participant18,28,59.8715866105,M,trial,2017_May_29_1705,
,,0.62,"[-2.25, 0]",/sounds/legit/left35.wav,,,,,,,,,2,23,93,24,,,,,,,,,,,,,,,left,0.268701076508,participant18,28,59.8715866105,M,trial,2017_May_29_1705,
,,0.62,"[-2.25, 0]",/sounds/legit/left35.wav,,,,,,,,,2,24,94,24,,,,,,,,,,,,,,,left,0.25194811821,participant18,28,59.8715866105,M,trial,2017_May_29_1705,
,,0.49,"[-4.5, 0]",/sounds/legit/left70.wav,,,,,,,,,2,25,95,28,,,,,,,,,,,,,,,left,0.235154151917,participant18,28,59.8715866105,M,trial,2017_May_29_1705,
,,0.1,"[2.25, 0]",/sounds/legit/right35.wav,,,,,,,,,2,26,96,5,,,,,,,,,,,,,,,right,0.251827001572,participant18,28,59.8715866105,M,trial,2017_May_29_1705,
,,0.23,"[2.25, 0]",/sounds/legit/right35.wav,,,,,,,,,2,27,97,6,,,,,,,,,,,,,,,right,0.318963050842,participant18,28,59.8715866105,M,trial,2017_May_29_1705,
,,0.36,"[-6.75, 0]",/sounds/legit/left100.wav,,,,,,,,,2,28,98,32,,,,,,,,,,,,,,,left,0.101530075073,participant18,28,59.8715866105,M,trial,2017_May_29_1705,
,,0.36,"[6.75, 0]",/sounds/legit/right100.wav,,,,,,,,,2,29,99,17,,,,,,,,,,,,,,,right,0.15162396431,participant18,28,59.8715866105,M,trial,2017_May_29_1705,
,,0.23,"[-4.5, 0]",/sounds/legit/left70.wav,,,,,,,,,2,30,100,26,,,,,,,,,,,,,,,left,0.285255908966,participant18,28,59.8715866105,M,trial,2017_May_29_1705,
,,0.62,"[4.5, 0]",/sounds/legit/right70.wav,,,,,,,,,2,31,101,14,,,,,,,,,,,,,,,right,0.302205085754,participant18,28,59.8715866105,M,trial,2017_May_29_1705,
,,0.1,"[-4.5, 0]",/sounds/legit/left70.wav,,,,,,,,,2,32,102,25,,,,,,,,,,,,,,,left,0.285106897354,participant18,28,59.8715866105,M,trial,2017_May_29_1705,
,,0.49,"[-4.5, 0]",/sounds/legit/left70.wav,,,,,,,,,2,33,103,28,,,,,,,,,,,,,,,left,0.435761213303,participant18,28,59.8715866105,M,trial,2017_May_29_1705,
,,0.36,"[6.75, 0]",/sounds/legit/right100.wav,,,,,,,,,2,34,104,17,,,,,,,,,,,,,,,right,0.201755046844,participant18,28,59.8715866105,M,trial,2017_May_29_1705,
,,0.62,"[2.25, 0]",/sounds/legit/right35.wav,,,,,,,,,3,0,105,9,,,,,,,,,,,,,,,right,0.302167892456,participant18,28,59.8715866105,M,trial,2017_May_29_1705,
,,0.23,"[-6.75, 0]",/sounds/legit/left100.wav,,,,,,,,,3,1,106,31,,,,,,,,,,,,,,,left,0.25207400322,participant18,28,59.8715866105,M,trial,2017_May_29_1705,
,,0.49,"[-2.25, 0]",/sounds/legit/left35.wav,,,,,,,,,3,2,107,23,,,,,,,,,,,,,,,left,0.485780000687,participant18,28,59.8715866105,M,trial,2017_May_29_1705,
,,0.62,"[0, 0]",/sounds/legit/equal.wav,,,,,,,,,3,3,108,4,,,,,,,,,,,,,,,right,0.619178056717,participant18,28,59.8715866105,M,trial,2017_May_29_1705,
,,0.1,"[-4.5, 0]",/sounds/legit/left70.wav,,,,,,,,,3,4,109,25,,,,,,,,,,,,,,,left,0.285337924957,participant18,28,59.8715866105,M,trial,2017_May_29_1705,
,,0.1,"[-4.5, 0]",/sounds/legit/left70.wav,,,,,,,,,3,5,110,25,,,,,,,,,,,,,,,left,0.385411977768,participant18,28,59.8715866105,M,trial,2017_May_29_1705,
,,0.23,"[-6.75, 0]",/sounds/legit/left100.wav,,,,,,,,,3,6,111,31,,,,,,,,,,,,,,,left,0.335596084595,participant18,28,59.8715866105,M,trial,2017_May_29_1705,
,,0.49,"[-6.75, 0]",/sounds/legit/left100.wav,,,,,,,,,3,7,112,33,,,,,,,,,,,,,,,left,0.252142190933,participant18,28,59.8715866105,M,trial,2017_May_29_1705,
,,0.62,"[-2.25, 0]",/sounds/legit/left35.wav,,,,,,,,,3,8,113,24,,,,,,,,,,,,,,,right,0.402105093002,participant18,28,59.8715866105,M,trial,2017_May_29_1705,
,,0.36,"[4.5, 0]",/sounds/legit/right70.wav,,,,,,,,,3,9,114,12,,,,,,,,,,,,,,,right,0.284955024719,participant18,28,59.8715866105,M,trial,2017_May_29_1705,
,,0.36,"[-2.25, 0]",/sounds/legit/left35.wav,,,,,,,,,3,10,115,22,,,,,,,,,,,,,,,left,0.268562078476,participant18,28,59.8715866105,M,trial,2017_May_29_1705,
,,0.1,"[0, 0]",/sounds/legit/equal.wav,,,,,,,,,3,11,116,0,,,,,,,,,,,,,,,right,0.552505016327,participant18,28,59.8715866105,M,trial,2017_May_29_1705,
,,0.62,"[6.75, 0]",/sounds/legit/right100.wav,,,,,,,,,3,12,117,19,,,,,,,,,,,,,,,right,0.185024023056,participant18,28,59.8715866105,M,trial,2017_May_29_1705,
,,0.1,"[0, 0]",/sounds/legit/equal.wav,,,,,,,,,3,13,118,0,,,,,,,,,,,,,,,right,0.218349933624,participant18,28,59.8715866105,M,trial,2017_May_29_1705,
,,0.1,"[4.5, 0]",/sounds/legit/right70.wav,,,,,,,,,3,14,119,10,,,,,,,,,,,,,,,right,0.134994983673,participant18,28,59.8715866105,M,trial,2017_May_29_1705,
,,0.36,"[6.75, 0]",/sounds/legit/right100.wav,,,,,,,,,3,15,120,17,,,,,,,,,,,,,,,right,0.235329866409,participant18,28,59.8715866105,M,trial,2017_May_29_1705,
,,0.49,"[-2.25, 0]",/sounds/legit/left35.wav,,,,,,,,,3,16,121,23,,,,,,,,,,,,,,,left,0.21844291687,participant18,28,59.8715866105,M,trial,2017_May_29_1705,
,,0.36,"[0, 0]",/sounds/legit/equal.wav,,,,,,,,,3,17,122,2,,,,,,,,,,,,,,,right,0.250853061676,participant18,28,59.8715866105,M,trial,2017_May_29_1705,
,,0.23,"[-2.25, 0]",/sounds/legit/left35.wav,,,,,,,,,3,18,123,21,,,,,,,,,,,,,,,left,0.285137176514,participant18,28,59.8715866105,M,trial,2017_May_29_1705,
,,0.62,"[-6.75, 0]",/sounds/legit/left100.wav,,,,,,,,,3,19,124,34,,,,,,,,,,,,,,,left,0.301943063736,participant18,28,59.8715866105,M,trial,2017_May_29_1705,
,,0.62,"[2.25, 0]",/sounds/legit/right35.wav,,,,,,,,,3,20,125,9,,,,,,,,,,,,,,,right,0.235301971436,participant18,28,59.8715866105,M,trial,2017_May_29_1705,
,,0.23,"[6.75, 0]",/sounds/legit/right100.wav,,,,,,,,,3,21,126,16,,,,,,,,,,,,,,,right,0.41884303093,participant18,28,59.8715866105,M,trial,2017_May_29_1705,
,,0.1,"[0, 0]",/sounds/legit/equal.wav,,,,,,,,,3,22,127,0,,,,,,,,,,,,,,,right,0.23548579216,participant18,28,59.8715866105,M,trial,2017_May_29_1705,
,,0.23,"[-2.25, 0]",/sounds/legit/left35.wav,,,,,,,,,3,23,128,21,,,,,,,,,,,,,,,left,0.30196595192,participant18,28,59.8715866105,M,trial,2017_May_29_1705,
,,0.49,"[6.75, 0]",/sounds/legit/right100.wav,,,,,,,,,3,24,129,18,,,,,,,,,,,,,,,right,0.184984922409,participant18,28,59.8715866105,M,trial,2017_May_29_1705,
,,0.62,"[0, 0]",/sounds/legit/equal.wav,,,,,,,,,3,25,130,4,,,,,,,,,,,,,,,right,0.302001953125,participant18,28,59.8715866105,M,trial,2017_May_29_1705,
,,0.1,"[-6.75, 0]",/sounds/legit/left100.wav,,,,,,,,,3,26,131,30,,,,,,,,,,,,,,,left,0.201756000519,participant18,28,59.8715866105,M,trial,2017_May_29_1705,
,,0.62,"[4.5, 0]",/sounds/legit/right70.wav,,,,,,,,,3,27,132,14,,,,,,,,,,,,,,,right,0.201756954193,participant18,28,59.8715866105,M,trial,2017_May_29_1705,
,,0.36,"[0, 0]",/sounds/legit/equal.wav,,,,,,,,,3,28,133,2,,,,,,,,,,,,,,,right,0.218472957611,participant18,28,59.8715866105,M,trial,2017_May_29_1705,
,,0.23,"[-4.5, 0]",/sounds/legit/left70.wav,,,,,,,,,3,29,134,26,,,,,,,,,,,,,,,left,0.150697946548,participant18,28,59.8715866105,M,trial,2017_May_29_1705,
,,0.36,"[-4.5, 0]",/sounds/legit/left70.wav,,,,,,,,,3,30,135,27,,,,,,,,,,,,,,,left,0.285304069519,participant18,28,59.8715866105,M,trial,2017_May_29_1705,
,,0.1,"[-6.75, 0]",/sounds/legit/left100.wav,,,,,,,,,3,31,136,30,,,,,,,,,,,,,,,left,0.185359954834,participant18,28,59.8715866105,M,trial,2017_May_29_1705,
,,0.23,"[-2.25, 0]",/sounds/legit/left35.wav,,,,,,,,,3,32,137,21,,,,,,,,,,,,,,,left,0.235715866089,participant18,28,59.8715866105,M,trial,2017_May_29_1705,
,,0.62,"[6.75, 0]",/sounds/legit/right100.wav,,,,,,,,,3,33,138,19,,,,,,,,,,,,,,,right,0.184942007065,participant18,28,59.8715866105,M,trial,2017_May_29_1705,
,,0.36,"[-6.75, 0]",/sounds/legit/left100.wav,,,,,,,,,3,34,139,32,,,,,,,,,,,,,,,left,0.218252897263,participant18,28,59.8715866105,M,trial,2017_May_29_1705,
,,0.49,"[0, 0]",/sounds/legit/equal.wav,,,,,,,,,4,0,140,3,,,,,,,,,,,,,,,left,0.335050106049,participant18,28,59.8715866105,M,trial,2017_May_29_1705,
,,0.36,"[0, 0]",/sounds/legit/equal.wav,,,,,,,,,4,1,141,2,,,,,,,,,,,,,,,right,0.201630830765,participant18,28,59.8715866105,M,trial,2017_May_29_1705,
,,0.1,"[4.5, 0]",/sounds/legit/right70.wav,,,,,,,,,4,2,142,10,,,,,,,,,,,,,,,right,0.0513181686401,participant18,28,59.8715866105,M,trial,2017_May_29_1705,
,,0.36,"[-4.5, 0]",/sounds/legit/left70.wav,,,,,,,,,4,3,143,27,,,,,,,,,,,,,,,left,0.184919118881,participant18,28,59.8715866105,M,trial,2017_May_29_1705,
,,0.23,"[4.5, 0]",/sounds/legit/right70.wav,,,,,,,,,4,4,144,11,,,,,,,,,,,,,,,right,1.22088980675,participant18,28,59.8715866105,M,trial,2017_May_29_1705,
,,0.49,"[-2.25, 0]",/sounds/legit/left35.wav,,,,,,,,,4,5,145,23,,,,,,,,,,,,,,,left,0.302150964737,participant18,28,59.8715866105,M,trial,2017_May_29_1705,
,,0.36,"[2.25, 0]",/sounds/legit/right35.wav,,,,,,,,,4,6,146,7,,,,,,,,,,,,,,,right,0.318737030029,participant18,28,59.8715866105,M,trial,2017_May_29_1705,
,,0.23,"[-6.75, 0]",/sounds/legit/left100.wav,,,,,,,,,4,7,147,31,,,,,,,,,,,,,,,left,0.335390090942,participant18,28,59.8715866105,M,trial,2017_May_29_1705,
,,0.36,"[0, 0]",/sounds/legit/equal.wav,,,,,,,,,4,8,148,2,,,,,,,,,,,,,,,right,0.318824052811,participant18,28,59.8715866105,M,trial,2017_May_29_1705,
,,0.36,"[-6.75, 0]",/sounds/legit/left100.wav,,,,,,,,,4,9,149,32,,,,,,,,,,,,,,,left,0.368766069412,participant18,28,59.8715866105,M,trial,2017_May_29_1705,
,,0.1,"[-4.5, 0]",/sounds/legit/left70.wav,,,,,,,,,4,10,150,25,,,,,,,,,,,,,,,left,0.602748155594,participant18,28,59.8715866105,M,trial,2017_May_29_1705,
,,0.49,"[-2.25, 0]",/sounds/legit/left35.wav,,,,,,,,,4,11,151,23,,,,,,,,,,,,,,,left,1.10367798805,participant18,28,59.8715866105,M,trial,2017_May_29_1705,
,,0.1,"[2.25, 0]",/sounds/legit/right35.wav,,,,,,,,,4,12,152,5,,,,,,,,,,,,,,,right,0.185080051422,participant18,28,59.8715866105,M,trial,2017_May_29_1705,
,,0.62,"[4.5, 0]",/sounds/legit/right70.wav,,,,,,,,,4,13,153,14,,,,,,,,,,,,,,,right,0.652935028076,participant18,28,59.8715866105,M,trial,2017_May_29_1705,
,,0.1,"[6.75, 0]",/sounds/legit/right100.wav,,,,,,,,,4,14,154,15,,,,,,,,,,,,,,,right,0.452223062515,participant18,28,59.8715866105,M,trial,2017_May_29_1705,
,,0.62,"[6.75, 0]",/sounds/legit/right100.wav,,,,,,,,,4,15,155,19,,,,,,,,,,,,,,,right,0.301896095276,participant18,28,59.8715866105,M,trial,2017_May_29_1705,
,,0.23,"[0, 0]",/sounds/legit/equal.wav,,,,,,,,,4,16,156,1,,,,,,,,,,,,,,,right,0.76976108551,participant18,28,59.8715866105,M,trial,2017_May_29_1705,
,,0.23,"[4.5, 0]",/sounds/legit/right70.wav,,,,,,,,,4,17,157,11,,,,,,,,,,,,,,,right,0.168278932571,participant18,28,59.8715866105,M,trial,2017_May_29_1705,
,,0.23,"[4.5, 0]",/sounds/legit/right70.wav,,,,,,,,,4,18,158,11,,,,,,,,,,,,,,,right,0.00139594078064,participant18,28,59.8715866105,M,trial,2017_May_29_1705,
,,0.49,"[4.5, 0]",/sounds/legit/right70.wav,,,,,,,,,4,19,159,13,,,,,,,,,,,,,,,right,0.201771974564,participant18,28,59.8715866105,M,trial,2017_May_29_1705,
,,0.23,"[2.25, 0]",/sounds/legit/right35.wav,,,,,,,,,4,20,160,6,,,,,,,,,,,,,,,right,0.201802015305,participant18,28,59.8715866105,M,trial,2017_May_29_1705,
,,0.23,"[-4.5, 0]",/sounds/legit/left70.wav,,,,,,,,,4,21,161,26,,,,,,,,,,,,,,,left,0.302094936371,participant18,28,59.8715866105,M,trial,2017_May_29_1705,
,,0.1,"[4.5, 0]",/sounds/legit/right70.wav,,,,,,,,,4,22,162,10,,,,,,,,,,,,,,,right,0.151626825333,participant18,28,59.8715866105,M,trial,2017_May_29_1705,
,,0.1,"[-2.25, 0]",/sounds/legit/left35.wav,,,,,,,,,4,23,163,20,,,,,,,,,,,,,,,left,0.485900878906,participant18,28,59.8715866105,M,trial,2017_May_29_1705,
,,0.36,"[2.25, 0]",/sounds/legit/right35.wav,,,,,,,,,4,24,164,7,,,,,,,,,,,,,,,right,0.384548902512,participant18,28,59.8715866105,M,trial,2017_May_29_1705,
,,0.1,"[-6.75, 0]",/sounds/legit/left100.wav,,,,,,,,,4,25,165,30,,,,,,,,,,,,,,,left,0.33455491066,participant18,28,59.8715866105,M,trial,2017_May_29_1705,
,,0.49,"[0, 0]",/sounds/legit/equal.wav,,,,,,,,,4,26,166,3,,,,,,,,,,,,,,,left,0.735960960388,participant18,28,59.8715866105,M,trial,2017_May_29_1705,
,,0.49,"[-2.25, 0]",/sounds/legit/left35.wav,,,,,,,,,4,27,167,23,,,,,,,,,,,,,,,left,0.268604040146,participant18,28,59.8715866105,M,trial,2017_May_29_1705,
,,0.49,"[-6.75, 0]",/sounds/legit/left100.wav,,,,,,,,,4,28,168,33,,,,,,,,,,,,,,,left,0.285607099533,participant18,28,59.8715866105,M,trial,2017_May_29_1705,
,,0.36,"[6.75, 0]",/sounds/legit/right100.wav,,,,,,,,,4,29,169,17,,,,,,,,,,,,,,,right,0.21747303009,participant18,28,59.8715866105,M,trial,2017_May_29_1705,
,,0.62,"[2.25, 0]",/sounds/legit/right35.wav,,,,,,,,,4,30,170,9,,,,,,,,,,,,,,,right,0.619332790375,participant18,28,59.8715866105,M,trial,2017_May_29_1705,
,,0.23,"[4.5, 0]",/sounds/legit/right70.wav,,,,,,,,,4,31,171,11,,,,,,,,,,,,,,,right,0.252054929733,participant18,28,59.8715866105,M,trial,2017_May_29_1705,
,,0.1,"[4.5, 0]",/sounds/legit/right70.wav,,,,,,,,,4,32,172,10,,,,,,,,,,,,,,,right,0.285326004028,participant18,28,59.8715866105,M,trial,2017_May_29_1705,
,,0.36,"[2.25, 0]",/sounds/legit/right35.wav,,,,,,,,,4,33,173,7,,,,,,,,,,,,,,,right,0.218435049057,participant18,28,59.8715866105,M,trial,2017_May_29_1705,
,,0.1,"[-4.5, 0]",/sounds/legit/left70.wav,,,,,,,,,4,34,174,25,,,,,,,,,,,,,,,left,0.252170801163,participant18,28,59.8715866105,M,trial,2017_May_29_1705,
,,0.62,"[4.5, 0]",/sounds/legit/right70.wav,,,,,,,,,5,0,175,14,,,,,,,,,,,,,,,right,0.101853132248,participant18,28,59.8715866105,M,trial,2017_May_29_1705,
,,0.1,"[6.75, 0]",/sounds/legit/right100.wav,,,,,,,,,5,1,176,15,,,,,,,,,,,,,,,right,0.185292959213,participant18,28,59.8715866105,M,trial,2017_May_29_1705,
,,0.36,"[-2.25, 0]",/sounds/legit/left35.wav,,,,,,,,,5,2,177,22,,,,,,,,,,,,,,,left,0.201621055603,participant18,28,59.8715866105,M,trial,2017_May_29_1705,
,,0.62,"[-4.5, 0]",/sounds/legit/left70.wav,,,,,,,,,5,3,178,29,,,,,,,,,,,,,,,left,0.268660068512,participant18,28,59.8715866105,M,trial,2017_May_29_1705,
,,0.1,"[-6.75, 0]",/sounds/legit/left100.wav,,,,,,,,,5,4,179,30,,,,,,,,,,,,,,,left,0.252004861832,participant18,28,59.8715866105,M,trial,2017_May_29_1705,
,,0.49,"[0, 0]",/sounds/legit/equal.wav,,,,,,,,,5,5,180,3,,,,,,,,,,,,,,,right,0.318917989731,participant18,28,59.8715866105,M,trial,2017_May_29_1705,
,,0.62,"[0, 0]",/sounds/legit/equal.wav,,,,,,,,,5,6,181,4,,,,,,,,,,,,,,,right,0.318521976471,participant18,28,59.8715866105,M,trial,2017_May_29_1705,
,,0.23,"[-2.25, 0]",/sounds/legit/left35.wav,,,,,,,,,5,7,182,21,,,,,,,,,,,,,,,left,0.201760053635,participant18,28,59.8715866105,M,trial,2017_May_29_1705,
,,0.49,"[4.5, 0]",/sounds/legit/right70.wav,,,,,,,,,5,8,183,13,,,,,,,,,,,,,,,right,0.235189199448,participant18,28,59.8715866105,M,trial,2017_May_29_1705,
,,0.36,"[6.75, 0]",/sounds/legit/right100.wav,,,,,,,,,5,9,184,17,,,,,,,,,,,,,,,right,0.201888084412,participant18,28,59.8715866105,M,trial,2017_May_29_1705,
,,0.49,"[-6.75, 0]",/sounds/legit/left100.wav,,,,,,,,,5,10,185,33,,,,,,,,,,,,,,,left,0.252075195312,participant18,28,59.8715866105,M,trial,2017_May_29_1705,
,,0.36,"[-4.5, 0]",/sounds/legit/left70.wav,,,,,,,,,5,11,186,27,,,,,,,,,,,,,,,left,0.352845907211,participant18,28,59.8715866105,M,trial,2017_May_29_1705,
,,0.62,"[0, 0]",/sounds/legit/equal.wav,,,,,,,,,5,12,187,4,,,,,,,,,,,,,,,right,0.602735996246,participant18,28,59.8715866105,M,trial,2017_May_29_1705,
,,0.49,"[-2.25, 0]",/sounds/legit/left35.wav,,,,,,,,,5,13,188,23,,,,,,,,,,,,,,,left,0.71949005127,participant18,28,59.8715866105,M,trial,2017_May_29_1705,
,,0.62,"[4.5, 0]",/sounds/legit/right70.wav,,,,,,,,,5,14,189,14,,,,,,,,,,,,,,,right,0.185053110123,participant18,28,59.8715866105,M,trial,2017_May_29_1705,
,,0.36,"[2.25, 0]",/sounds/legit/right35.wav,,,,,,,,,5,15,190,7,,,,,,,,,,,,,,,right,0.351920843124,participant18,28,59.8715866105,M,trial,2017_May_29_1705,
,,0.62,"[-6.75, 0]",/sounds/legit/left100.wav,,,,,,,,,5,16,191,34,,,,,,,,,,,,,,,left,0.235265016556,participant18,28,59.8715866105,M,trial,2017_May_29_1705,
,,0.23,"[-4.5, 0]",/sounds/legit/left70.wav,,,,,,,,,5,17,192,26,,,,,,,,,,,,,,,left,0.218415021896,participant18,28,59.8715866105,M,trial,2017_May_29_1705,
,,0.23,"[6.75, 0]",/sounds/legit/right100.wav,,,,,,,,,5,18,193,16,,,,,,,,,,,,,,,right,0.0680060386658,participant18,28,59.8715866105,M,trial,2017_May_29_1705,
,,0.23,"[2.25, 0]",/sounds/legit/right35.wav,,,,,,,,,5,19,194,6,,,,,,,,,,,,,,,right,0.184775114059,participant18,28,59.8715866105,M,trial,2017_May_29_1705,
,,0.49,"[2.25, 0]",/sounds/legit/right35.wav,,,,,,,,,5,20,195,8,,,,,,,,,,,,,,,right,0.135138988495,participant18,28,59.8715866105,M,trial,2017_May_29_1705,
,,0.62,"[-2.25, 0]",/sounds/legit/left35.wav,,,,,,,,,5,21,196,24,,,,,,,,,,,,,,,left,0.285274982452,participant18,28,59.8715866105,M,trial,2017_May_29_1705,
,,0.36,"[2.25, 0]",/sounds/legit/right35.wav,,,,,,,,,5,22,197,7,,,,,,,,,,,,,,,right,0.0180649757385,participant18,28,59.8715866105,M,trial,2017_May_29_1705,
,,0.62,"[-4.5, 0]",/sounds/legit/left70.wav,,,,,,,,,5,23,198,29,,,,,,,,,,,,,,,left,0.184784889221,participant18,28,59.8715866105,M,trial,2017_May_29_1705,
,,0.62,"[6.75, 0]",/sounds/legit/right100.wav,,,,,,,,,5,24,199,19,,,,,,,,,,,,,,,right,0.0848531723022,participant18,28,59.8715866105,M,trial,2017_May_29_1705,
,,0.36,"[2.25, 0]",/sounds/legit/right35.wav,,,,,,,,,5,25,200,7,,,,,,,,,,,,,,,right,1.15379714966,participant18,28,59.8715866105,M,trial,2017_May_29_1705,
,,0.62,"[2.25, 0]",/sounds/legit/right35.wav,,,,,,,,,5,26,201,9,,,,,,,,,,,,,,,right,0.184905052185,participant18,28,59.8715866105,M,trial,2017_May_29_1705,
,,0.23,"[2.25, 0]",/sounds/legit/right35.wav,,,,,,,,,5,27,202,6,,,,,,,,,,,,,,,right,0.151499986649,participant18,28,59.8715866105,M,trial,2017_May_29_1705,
,,0.1,"[-2.25, 0]",/sounds/legit/left35.wav,,,,,,,,,5,28,203,20,,,,,,,,,,,,,,,left,0.218456983566,participant18,28,59.8715866105,M,trial,2017_May_29_1705,
,,0.49,"[0, 0]",/sounds/legit/equal.wav,,,,,,,,,5,29,204,3,,,,,,,,,,,,,,,right,0.251978874207,participant18,28,59.8715866105,M,trial,2017_May_29_1705,
,,0.62,"[-6.75, 0]",/sounds/legit/left100.wav,,,,,,,,,5,30,205,34,,,,,,,,,,,,,,,left,0.101494073868,participant18,28,59.8715866105,M,trial,2017_May_29_1705,
,,0.23,"[2.25, 0]",/sounds/legit/right35.wav,,,,,,,,,5,31,206,6,,,,,,,,,,,,,,,right,0.134890079498,participant18,28,59.8715866105,M,trial,2017_May_29_1705,
,,0.23,"[0, 0]",/sounds/legit/equal.wav,,,,,,,,,5,32,207,1,,,,,,,,,,,,,,,right,0.151743173599,participant18,28,59.8715866105,M,trial,2017_May_29_1705,
,,0.23,"[6.75, 0]",/sounds/legit/right100.wav,,,,,,,,,5,33,208,16,,,,,,,,,,,,,,,right,0.0349171161652,participant18,28,59.8715866105,M,trial,2017_May_29_1705,
,,0.49,"[4.5, 0]",/sounds/legit/right70.wav,,,,,,,,,5,34,209,13,,,,,,,,,,,,,,,right,0.0516328811646,participant18,28,59.8715866105,M,trial,2017_May_29_1705,
,,0.1,"[0, 0]",/sounds/legit/equal.wav,,,,,,,,,6,0,210,0,,,,,,,,,,,,,,,right,0.452277183533,participant18,28,59.8715866105,M,trial,2017_May_29_1705,
,,0.62,"[2.25, 0]",/sounds/legit/right35.wav,,,,,,,,,6,1,211,9,,,,,,,,,,,,,,,right,0.0847191810608,participant18,28,59.8715866105,M,trial,2017_May_29_1705,
,,0.1,"[4.5, 0]",/sounds/legit/right70.wav,,,,,,,,,6,2,212,10,,,,,,,,,,,,,,,right,0.0179507732391,participant18,28,59.8715866105,M,trial,2017_May_29_1705,
,,0.23,"[6.75, 0]",/sounds/legit/right100.wav,,,,,,,,,6,3,213,16,,,,,,,,,,,,,,,right,1.020154953,participant18,28,59.8715866105,M,trial,2017_May_29_1705,
,,0.36,"[-4.5, 0]",/sounds/legit/left70.wav,,,,,,,,,6,4,214,27,,,,,,,,,,,,,,,left,0.251842021942,participant18,28,59.8715866105,M,trial,2017_May_29_1705,
,,0.36,"[0, 0]",/sounds/legit/equal.wav,,,,,,,,,6,5,215,2,,,,,,,,,,,,,,,right,0.251787900925,participant18,28,59.8715866105,M,trial,2017_May_29_1705,
,,0.49,"[6.75, 0]",/sounds/legit/right100.wav,,,,,,,,,6,6,216,18,,,,,,,,,,,,,,,right,0.0680778026581,participant18,28,59.8715866105,M,trial,2017_May_29_1705,
,,0.1,"[6.75, 0]",/sounds/legit/right100.wav,,,,,,,,,6,7,217,15,,,,,,,,,,,,,,,right,0.201653957367,participant18,28,59.8715866105,M,trial,2017_May_29_1705,
,,0.49,"[-6.75, 0]",/sounds/legit/left100.wav,,,,,,,,,6,8,218,33,,,,,,,,,,,,,,,left,0.134856939316,participant18,28,59.8715866105,M,trial,2017_May_29_1705,
,,0.49,"[0, 0]",/sounds/legit/equal.wav,,,,,,,,,6,9,219,3,,,,,,,,,,,,,,,right,0.235248088837,participant18,28,59.8715866105,M,trial,2017_May_29_1705,
,,0.23,"[2.25, 0]",/sounds/legit/right35.wav,,,,,,,,,6,10,220,6,,,,,,,,,,,,,,,right,0.135034799576,participant18,28,59.8715866105,M,trial,2017_May_29_1705,
,,0.36,"[-4.5, 0]",/sounds/legit/left70.wav,,,,,,,,,6,11,221,27,,,,,,,,,,,,,,,left,0.151629924774,participant18,28,59.8715866105,M,trial,2017_May_29_1705,
,,0.36,"[0, 0]",/sounds/legit/equal.wav,,,,,,,,,6,12,222,2,,,,,,,,,,,,,,,right,0.218733072281,participant18,28,59.8715866105,M,trial,2017_May_29_1705,
,,0.1,"[-6.75, 0]",/sounds/legit/left100.wav,,,,,,,,,6,13,223,30,,,,,,,,,,,,,,,left,0.117835044861,participant18,28,59.8715866105,M,trial,2017_May_29_1705,
