path,name,noise,location,correspondingAudio,audiotrials.thisRepN,audiotrials.thisTrialN,audiotrials.thisN,audiotrials.thisIndex,visualTrials.thisRepN,visualTrials.thisTrialN,visualTrials.thisN,visualTrials.thisIndex,combinedTrials.thisRepN,combinedTrials.thisTrialN,combinedTrials.thisN,combinedTrials.thisIndex,WelcomeKey.keys,WelcomeKey.rt,key_resp_2.keys,key_resp_2.rt,AudioInstrAccept.keys,AudioInstrAccept.rt,LeftorRight.keys,LeftorRight.rt,VisualBlock.keys,VisualBlock.rt,VisualDecision.keys,VisualDecision.rt,CombinedAccept.keys,CombinedAccept.rt,CombComparisonResponse.keys,CombComparisonResponse.rt,participant,age,frameRate,sex,expName,date,
,,,,,,,,,,,,,,,,,space,24.9095931053,,,,,,,,,,,,,,,participant13,28,59.7201018899,M,trial,2017_May_28_1702,
,,,,,,,,,,,,,,,,,,,space,10.1905970573,,,,,,,,,,,,,participant13,28,59.7201018899,M,trial,2017_May_28_1702,
,,,,,,,,,,,,,,,,,,,,,space,11.4429991245,,,,,,,,,,,participant13,28,59.7201018899,M,trial,2017_May_28_1702,
/sounds/legit/right70.wav,right60,,,,0,0,0,4,,,,,,,,,,,,,,,right,1.55477714539,,,,,,,,,participant13,28,59.7201018899,M,trial,2017_May_28_1702,
/sounds/legit/left70.wav,left60,,,,0,1,1,1,,,,,,,,,,,,,,,left,1.23763799667,,,,,,,,,participant13,28,59.7201018899,M,trial,2017_May_28_1702,
/sounds/legit/equal.wav,equal,,,,0,2,2,6,,,,,,,,,,,,,,,left,32.1364848614,,,,,,,,,participant13,28,59.7201018899,M,trial,2017_May_28_1702,
/sounds/legit/left35.wav,left30,,,,0,3,3,2,,,,,,,,,,,,,,,left,1.58808398247,,,,,,,,,participant13,28,59.7201018899,M,trial,2017_May_28_1702,
/sounds/legit/left100.wav,left100,,,,0,4,4,0,,,,,,,,,,,,,,,left,0.819661855698,,,,,,,,,participant13,28,59.7201018899,M,trial,2017_May_28_1702,
/sounds/legit/right35.wav,right30,,,,0,5,5,3,,,,,,,,,,,,,,,right,0.870064020157,,,,,,,,,participant13,28,59.7201018899,M,trial,2017_May_28_1702,
/sounds/legit/right100.wav,right100,,,,0,6,6,5,,,,,,,,,,,,,,,right,1.30403900146,,,,,,,,,participant13,28,59.7201018899,M,trial,2017_May_28_1702,
/sounds/legit/right70.wav,right60,,,,1,0,7,4,,,,,,,,,,,,,,,right,1.00354504585,,,,,,,,,participant13,28,59.7201018899,M,trial,2017_May_28_1702,
/sounds/legit/right100.wav,right100,,,,1,1,8,5,,,,,,,,,,,,,,,right,0.586036205292,,,,,,,,,participant13,28,59.7201018899,M,trial,2017_May_28_1702,
/sounds/legit/left35.wav,left30,,,,1,2,9,2,,,,,,,,,,,,,,,left,0.869729042053,,,,,,,,,participant13,28,59.7201018899,M,trial,2017_May_28_1702,
/sounds/legit/left100.wav,left100,,,,1,3,10,0,,,,,,,,,,,,,,,left,0.620669126511,,,,,,,,,participant13,28,59.7201018899,M,trial,2017_May_28_1702,
/sounds/legit/left70.wav,left60,,,,1,4,11,1,,,,,,,,,,,,,,,left,0.569179058075,,,,,,,,,participant13,28,59.7201018899,M,trial,2017_May_28_1702,
/sounds/legit/equal.wav,equal,,,,1,5,12,6,,,,,,,,,,,,,,,left,0.5022149086,,,,,,,,,participant13,28,59.7201018899,M,trial,2017_May_28_1702,
/sounds/legit/right35.wav,right30,,,,1,6,13,3,,,,,,,,,,,,,,,right,0.468969106674,,,,,,,,,participant13,28,59.7201018899,M,trial,2017_May_28_1702,
/sounds/legit/left70.wav,left60,,,,2,0,14,1,,,,,,,,,,,,,,,left,0.352177858353,,,,,,,,,participant13,28,59.7201018899,M,trial,2017_May_28_1702,
/sounds/legit/right70.wav,right60,,,,2,1,15,4,,,,,,,,,,,,,,,right,0.368588209152,,,,,,,,,participant13,28,59.7201018899,M,trial,2017_May_28_1702,
/sounds/legit/left35.wav,left30,,,,2,2,16,2,,,,,,,,,,,,,,,left,0.30192899704,,,,,,,,,participant13,28,59.7201018899,M,trial,2017_May_28_1702,
/sounds/legit/left100.wav,left100,,,,2,3,17,0,,,,,,,,,,,,,,,left,0.25164604187,,,,,,,,,participant13,28,59.7201018899,M,trial,2017_May_28_1702,
/sounds/legit/equal.wav,equal,,,,2,4,18,6,,,,,,,,,,,,,,,left,0.685997009277,,,,,,,,,participant13,28,59.7201018899,M,trial,2017_May_28_1702,
/sounds/legit/right100.wav,right100,,,,2,5,19,5,,,,,,,,,,,,,,,right,0.318654060364,,,,,,,,,participant13,28,59.7201018899,M,trial,2017_May_28_1702,
/sounds/legit/right35.wav,right30,,,,2,6,20,3,,,,,,,,,,,,,,,left,0.468909978867,,,,,,,,,participant13,28,59.7201018899,M,trial,2017_May_28_1702,
/sounds/legit/equal.wav,equal,,,,3,0,21,6,,,,,,,,,,,,,,,left,0.335449934006,,,,,,,,,participant13,28,59.7201018899,M,trial,2017_May_28_1702,
/sounds/legit/left70.wav,left60,,,,3,1,22,1,,,,,,,,,,,,,,,left,0.585839033127,,,,,,,,,participant13,28,59.7201018899,M,trial,2017_May_28_1702,
/sounds/legit/left35.wav,left30,,,,3,2,23,2,,,,,,,,,,,,,,,left,0.719310998917,,,,,,,,,participant13,28,59.7201018899,M,trial,2017_May_28_1702,
/sounds/legit/left100.wav,left100,,,,3,3,24,0,,,,,,,,,,,,,,,left,0.569276809692,,,,,,,,,participant13,28,59.7201018899,M,trial,2017_May_28_1702,
/sounds/legit/right35.wav,right30,,,,3,4,25,3,,,,,,,,,,,,,,,right,1.33741998672,,,,,,,,,participant13,28,59.7201018899,M,trial,2017_May_28_1702,
/sounds/legit/right70.wav,right60,,,,3,5,26,4,,,,,,,,,,,,,,,right,0.535753965378,,,,,,,,,participant13,28,59.7201018899,M,trial,2017_May_28_1702,
/sounds/legit/right100.wav,right100,,,,3,6,27,5,,,,,,,,,,,,,,,right,0.318726062775,,,,,,,,,participant13,28,59.7201018899,M,trial,2017_May_28_1702,
/sounds/legit/left100.wav,left100,,,,4,0,28,0,,,,,,,,,,,,,,,left,0.8864569664,,,,,,,,,participant13,28,59.7201018899,M,trial,2017_May_28_1702,
/sounds/legit/left70.wav,left60,,,,4,1,29,1,,,,,,,,,,,,,,,left,0.786369085312,,,,,,,,,participant13,28,59.7201018899,M,trial,2017_May_28_1702,
/sounds/legit/left35.wav,left30,,,,4,2,30,2,,,,,,,,,,,,,,,left,0.368751049042,,,,,,,,,participant13,28,59.7201018899,M,trial,2017_May_28_1702,
/sounds/legit/right100.wav,right100,,,,4,3,31,5,,,,,,,,,,,,,,,right,0.819732189178,,,,,,,,,participant13,28,59.7201018899,M,trial,2017_May_28_1702,
/sounds/legit/right70.wav,right60,,,,4,4,32,4,,,,,,,,,,,,,,,right,0.819647073746,,,,,,,,,participant13,28,59.7201018899,M,trial,2017_May_28_1702,
/sounds/legit/right35.wav,right30,,,,4,5,33,3,,,,,,,,,,,,,,,left,0.369131088257,,,,,,,,,participant13,28,59.7201018899,M,trial,2017_May_28_1702,
/sounds/legit/equal.wav,equal,,,,4,6,34,6,,,,,,,,,,,,,,,left,1.671667099,,,,,,,,,participant13,28,59.7201018899,M,trial,2017_May_28_1702,
/sounds/legit/left35.wav,left30,,,,5,0,35,2,,,,,,,,,,,,,,,left,0.485823869705,,,,,,,,,participant13,28,59.7201018899,M,trial,2017_May_28_1702,
/sounds/legit/right70.wav,right60,,,,5,1,36,4,,,,,,,,,,,,,,,right,0.268256902695,,,,,,,,,participant13,28,59.7201018899,M,trial,2017_May_28_1702,
/sounds/legit/left70.wav,left60,,,,5,2,37,1,,,,,,,,,,,,,,,left,0.903234004974,,,,,,,,,participant13,28,59.7201018899,M,trial,2017_May_28_1702,
/sounds/legit/equal.wav,equal,,,,5,3,38,6,,,,,,,,,,,,,,,left,0.335755109787,,,,,,,,,participant13,28,59.7201018899,M,trial,2017_May_28_1702,
/sounds/legit/right35.wav,right30,,,,5,4,39,3,,,,,,,,,,,,,,,right,0.618350028992,,,,,,,,,participant13,28,59.7201018899,M,trial,2017_May_28_1702,
/sounds/legit/left100.wav,left100,,,,5,5,40,0,,,,,,,,,,,,,,,left,0.218480825424,,,,,,,,,participant13,28,59.7201018899,M,trial,2017_May_28_1702,
/sounds/legit/right100.wav,right100,,,,5,6,41,5,,,,,,,,,,,,,,,right,0.285208940506,,,,,,,,,participant13,28,59.7201018899,M,trial,2017_May_28_1702,
/sounds/legit/left35.wav,left30,,,,6,0,42,2,,,,,,,,,,,,,,,left,0.252008914948,,,,,,,,,participant13,28,59.7201018899,M,trial,2017_May_28_1702,
/sounds/legit/right100.wav,right100,,,,6,1,43,5,,,,,,,,,,,,,,,right,0.185115098953,,,,,,,,,participant13,28,59.7201018899,M,trial,2017_May_28_1702,
/sounds/legit/equal.wav,equal,,,,6,2,44,6,,,,,,,,,,,,,,,left,1.98888993263,,,,,,,,,participant13,28,59.7201018899,M,trial,2017_May_28_1702,
/sounds/legit/left70.wav,left60,,,,6,3,45,1,,,,,,,,,,,,,,,left,1.23730492592,,,,,,,,,participant13,28,59.7201018899,M,trial,2017_May_28_1702,
/sounds/legit/right70.wav,right60,,,,6,4,46,4,,,,,,,,,,,,,,,right,0.46914601326,,,,,,,,,participant13,28,59.7201018899,M,trial,2017_May_28_1702,
/sounds/legit/left100.wav,left100,,,,6,5,47,0,,,,,,,,,,,,,,,left,0.185126066208,,,,,,,,,participant13,28,59.7201018899,M,trial,2017_May_28_1702,
/sounds/legit/right35.wav,right30,,,,6,6,48,3,,,,,,,,,,,,,,,right,0.569039106369,,,,,,,,,participant13,28,59.7201018899,M,trial,2017_May_28_1702,
/sounds/legit/equal.wav,equal,,,,7,0,49,6,,,,,,,,,,,,,,,left,0.251847982407,,,,,,,,,participant13,28,59.7201018899,M,trial,2017_May_28_1702,
/sounds/legit/left70.wav,left60,,,,7,1,50,1,,,,,,,,,,,,,,,left,0.185347080231,,,,,,,,,participant13,28,59.7201018899,M,trial,2017_May_28_1702,
/sounds/legit/right35.wav,right30,,,,7,2,51,3,,,,,,,,,,,,,,,right,1.20431113243,,,,,,,,,participant13,28,59.7201018899,M,trial,2017_May_28_1702,
/sounds/legit/right100.wav,right100,,,,7,3,52,5,,,,,,,,,,,,,,,right,1.65475797653,,,,,,,,,participant13,28,59.7201018899,M,trial,2017_May_28_1702,
/sounds/legit/right70.wav,right60,,,,7,4,53,4,,,,,,,,,,,,,,,right,0.535892963409,,,,,,,,,participant13,28,59.7201018899,M,trial,2017_May_28_1702,
/sounds/legit/left35.wav,left30,,,,7,5,54,2,,,,,,,,,,,,,,,left,0.201847076416,,,,,,,,,participant13,28,59.7201018899,M,trial,2017_May_28_1702,
/sounds/legit/left100.wav,left100,,,,7,6,55,0,,,,,,,,,,,,,,,left,0.0682590007782,,,,,,,,,participant13,28,59.7201018899,M,trial,2017_May_28_1702,
/sounds/legit/left35.wav,left30,,,,8,0,56,2,,,,,,,,,,,,,,,left,0.736204862595,,,,,,,,,participant13,28,59.7201018899,M,trial,2017_May_28_1702,
/sounds/legit/right35.wav,right30,,,,8,1,57,3,,,,,,,,,,,,,,,right,0.603720903397,,,,,,,,,participant13,28,59.7201018899,M,trial,2017_May_28_1702,
/sounds/legit/left100.wav,left100,,,,8,2,58,0,,,,,,,,,,,,,,,left,0.852905035019,,,,,,,,,participant13,28,59.7201018899,M,trial,2017_May_28_1702,
/sounds/legit/left70.wav,left60,,,,8,3,59,1,,,,,,,,,,,,,,,left,0.618974924088,,,,,,,,,participant13,28,59.7201018899,M,trial,2017_May_28_1702,
/sounds/legit/equal.wav,equal,,,,8,4,60,6,,,,,,,,,,,,,,,left,0.569347858429,,,,,,,,,participant13,28,59.7201018899,M,trial,2017_May_28_1702,
/sounds/legit/right70.wav,right60,,,,8,5,61,4,,,,,,,,,,,,,,,right,0.218571186066,,,,,,,,,participant13,28,59.7201018899,M,trial,2017_May_28_1702,
/sounds/legit/right100.wav,right100,,,,8,6,62,5,,,,,,,,,,,,,,,right,0.168519973755,,,,,,,,,participant13,28,59.7201018899,M,trial,2017_May_28_1702,
/sounds/legit/left35.wav,left30,,,,9,0,63,2,,,,,,,,,,,,,,,left,0.318561077118,,,,,,,,,participant13,28,59.7201018899,M,trial,2017_May_28_1702,
/sounds/legit/left100.wav,left100,,,,9,1,64,0,,,,,,,,,,,,,,,left,0.452373981476,,,,,,,,,participant13,28,59.7201018899,M,trial,2017_May_28_1702,
/sounds/legit/equal.wav,equal,,,,9,2,65,6,,,,,,,,,,,,,,,left,0.385581016541,,,,,,,,,participant13,28,59.7201018899,M,trial,2017_May_28_1702,
/sounds/legit/right70.wav,right60,,,,9,3,66,4,,,,,,,,,,,,,,,right,0.218445062637,,,,,,,,,participant13,28,59.7201018899,M,trial,2017_May_28_1702,
/sounds/legit/left70.wav,left60,,,,9,4,67,1,,,,,,,,,,,,,,,left,0.201807975769,,,,,,,,,participant13,28,59.7201018899,M,trial,2017_May_28_1702,
/sounds/legit/right100.wav,right100,,,,9,5,68,5,,,,,,,,,,,,,,,right,0.285146951675,,,,,,,,,participant13,28,59.7201018899,M,trial,2017_May_28_1702,
/sounds/legit/right35.wav,right30,,,,9,6,69,3,,,,,,,,,,,,,,,left,0.552401065826,,,,,,,,,participant13,28,59.7201018899,M,trial,2017_May_28_1702,
,,,,,,,,,,,,,,,,,,,,,,,,,space,57.4580049515,,,,,,,participant13,28,59.7201018899,M,trial,2017_May_28_1702,
,,0.23,"[2.25, 0]",/sounds/legit/right35.wav,,,,,0,0,0,6,,,,,,,,,,,,,,,right,1.62112116814,,,,,participant13,28,59.7201018899,M,trial,2017_May_28_1702,
,,0.1,"[4.5, 0]",/sounds/legit/right70.wav,,,,,0,1,1,10,,,,,,,,,,,,,,,right,0.402348041534,,,,,participant13,28,59.7201018899,M,trial,2017_May_28_1702,
,,0.62,"[2.25, 0]",/sounds/legit/right35.wav,,,,,0,2,2,9,,,,,,,,,,,,,,,right,0.352261781693,,,,,participant13,28,59.7201018899,M,trial,2017_May_28_1702,
,,0.49,"[-6.75, 0]",/sounds/legit/left100.wav,,,,,0,3,3,33,,,,,,,,,,,,,,,left,0.235032081604,,,,,participant13,28,59.7201018899,M,trial,2017_May_28_1702,
,,0.62,"[-6.75, 0]",/sounds/legit/left100.wav,,,,,0,4,4,34,,,,,,,,,,,,,,,left,0.552320957184,,,,,participant13,28,59.7201018899,M,trial,2017_May_28_1702,
,,0.1,"[0, 0]",/sounds/legit/equal.wav,,,,,0,5,5,0,,,,,,,,,,,,,,,left,0.836746931076,,,,,participant13,28,59.7201018899,M,trial,2017_May_28_1702,
,,0.36,"[-6.75, 0]",/sounds/legit/left100.wav,,,,,0,6,6,32,,,,,,,,,,,,,,,left,0.201858043671,,,,,participant13,28,59.7201018899,M,trial,2017_May_28_1702,
,,0.62,"[0, 0]",/sounds/legit/equal.wav,,,,,0,7,7,4,,,,,,,,,,,,,,,left,0.502360105515,,,,,participant13,28,59.7201018899,M,trial,2017_May_28_1702,
,,0.1,"[-4.5, 0]",/sounds/legit/left70.wav,,,,,0,8,8,25,,,,,,,,,,,,,,,left,0.418819189072,,,,,participant13,28,59.7201018899,M,trial,2017_May_28_1702,
,,0.36,"[-2.25, 0]",/sounds/legit/left35.wav,,,,,0,9,9,22,,,,,,,,,,,,,,,left,0.235194206238,,,,,participant13,28,59.7201018899,M,trial,2017_May_28_1702,
,,0.23,"[0, 0]",/sounds/legit/equal.wav,,,,,0,10,10,1,,,,,,,,,,,,,,,left,4.71150708199,,,,,participant13,28,59.7201018899,M,trial,2017_May_28_1702,
,,0.1,"[-2.25, 0]",/sounds/legit/left35.wav,,,,,0,11,11,20,,,,,,,,,,,,,,,left,0.268587112427,,,,,participant13,28,59.7201018899,M,trial,2017_May_28_1702,
,,0.49,"[2.25, 0]",/sounds/legit/right35.wav,,,,,0,12,12,8,,,,,,,,,,,,,,,right,0.185175895691,,,,,participant13,28,59.7201018899,M,trial,2017_May_28_1702,
,,0.36,"[-4.5, 0]",/sounds/legit/left70.wav,,,,,0,13,13,27,,,,,,,,,,,,,,,left,0.48584485054,,,,,participant13,28,59.7201018899,M,trial,2017_May_28_1702,
,,0.1,"[-6.75, 0]",/sounds/legit/left100.wav,,,,,0,14,14,30,,,,,,,,,,,,,,,left,0.252039909363,,,,,participant13,28,59.7201018899,M,trial,2017_May_28_1702,
,,0.62,"[4.5, 0]",/sounds/legit/right70.wav,,,,,0,15,15,14,,,,,,,,,,,,,,,right,0.285784006119,,,,,participant13,28,59.7201018899,M,trial,2017_May_28_1702,
,,0.62,"[-2.25, 0]",/sounds/legit/left35.wav,,,,,0,16,16,24,,,,,,,,,,,,,,,left,0.251935958862,,,,,participant13,28,59.7201018899,M,trial,2017_May_28_1702,
,,0.49,"[-2.25, 0]",/sounds/legit/left35.wav,,,,,0,17,17,23,,,,,,,,,,,,,,,left,0.352144002914,,,,,participant13,28,59.7201018899,M,trial,2017_May_28_1702,
,,0.23,"[6.75, 0]",/sounds/legit/right100.wav,,,,,0,18,18,16,,,,,,,,,,,,,,,right,0.151492834091,,,,,participant13,28,59.7201018899,M,trial,2017_May_28_1702,
,,0.23,"[-4.5, 0]",/sounds/legit/left70.wav,,,,,0,19,19,26,,,,,,,,,,,,,,,left,0.185173034668,,,,,participant13,28,59.7201018899,M,trial,2017_May_28_1702,
,,0.36,"[2.25, 0]",/sounds/legit/right35.wav,,,,,0,20,20,7,,,,,,,,,,,,,,,right,0.185212850571,,,,,participant13,28,59.7201018899,M,trial,2017_May_28_1702,
,,0.23,"[-2.25, 0]",/sounds/legit/left35.wav,,,,,0,21,21,21,,,,,,,,,,,,,,,left,0.435314893723,,,,,participant13,28,59.7201018899,M,trial,2017_May_28_1702,
,,0.49,"[6.75, 0]",/sounds/legit/right100.wav,,,,,0,22,22,18,,,,,,,,,,,,,,,right,0.185200214386,,,,,participant13,28,59.7201018899,M,trial,2017_May_28_1702,
,,0.1,"[6.75, 0]",/sounds/legit/right100.wav,,,,,0,23,23,15,,,,,,,,,,,,,,,right,0.101362943649,,,,,participant13,28,59.7201018899,M,trial,2017_May_28_1702,
,,0.49,"[4.5, 0]",/sounds/legit/right70.wav,,,,,0,24,24,13,,,,,,,,,,,,,,,right,0.0681030750275,,,,,participant13,28,59.7201018899,M,trial,2017_May_28_1702,
,,0.36,"[4.5, 0]",/sounds/legit/right70.wav,,,,,0,25,25,12,,,,,,,,,,,,,,,right,0.385565042496,,,,,participant13,28,59.7201018899,M,trial,2017_May_28_1702,
,,0.1,"[2.25, 0]",/sounds/legit/right35.wav,,,,,0,26,26,5,,,,,,,,,,,,,,,right,0.334378004074,,,,,participant13,28,59.7201018899,M,trial,2017_May_28_1702,
,,0.36,"[0, 0]",/sounds/legit/equal.wav,,,,,0,27,27,2,,,,,,,,,,,,,,,left,1.15375995636,,,,,participant13,28,59.7201018899,M,trial,2017_May_28_1702,
,,0.49,"[-4.5, 0]",/sounds/legit/left70.wav,,,,,0,28,28,28,,,,,,,,,,,,,,,left,0.185153961182,,,,,participant13,28,59.7201018899,M,trial,2017_May_28_1702,
,,0.23,"[4.5, 0]",/sounds/legit/right70.wav,,,,,0,29,29,11,,,,,,,,,,,,,,,right,1.02039718628,,,,,participant13,28,59.7201018899,M,trial,2017_May_28_1702,
,,0.23,"[-6.75, 0]",/sounds/legit/left100.wav,,,,,0,30,30,31,,,,,,,,,,,,,,,left,0.268626928329,,,,,participant13,28,59.7201018899,M,trial,2017_May_28_1702,
,,0.62,"[6.75, 0]",/sounds/legit/right100.wav,,,,,0,31,31,19,,,,,,,,,,,,,,,right,0.251764059067,,,,,participant13,28,59.7201018899,M,trial,2017_May_28_1702,
,,0.36,"[6.75, 0]",/sounds/legit/right100.wav,,,,,0,32,32,17,,,,,,,,,,,,,,,right,0.235142946243,,,,,participant13,28,59.7201018899,M,trial,2017_May_28_1702,
,,0.49,"[0, 0]",/sounds/legit/equal.wav,,,,,0,33,33,3,,,,,,,,,,,,,,,right,1.02036499977,,,,,participant13,28,59.7201018899,M,trial,2017_May_28_1702,
,,0.62,"[-4.5, 0]",/sounds/legit/left70.wav,,,,,0,34,34,29,,,,,,,,,,,,,,,left,0.318801164627,,,,,participant13,28,59.7201018899,M,trial,2017_May_28_1702,
,,0.62,"[-4.5, 0]",/sounds/legit/left70.wav,,,,,1,0,35,29,,,,,,,,,,,,,,,left,0.301789999008,,,,,participant13,28,59.7201018899,M,trial,2017_May_28_1702,
,,0.49,"[-4.5, 0]",/sounds/legit/left70.wav,,,,,1,1,36,28,,,,,,,,,,,,,,,left,0.26874089241,,,,,participant13,28,59.7201018899,M,trial,2017_May_28_1702,
,,0.23,"[-6.75, 0]",/sounds/legit/left100.wav,,,,,1,2,37,31,,,,,,,,,,,,,,,left,0.285055875778,,,,,participant13,28,59.7201018899,M,trial,2017_May_28_1702,
,,0.49,"[6.75, 0]",/sounds/legit/right100.wav,,,,,1,3,38,18,,,,,,,,,,,,,,,right,0.235038995743,,,,,participant13,28,59.7201018899,M,trial,2017_May_28_1702,
,,0.1,"[4.5, 0]",/sounds/legit/right70.wav,,,,,1,4,39,10,,,,,,,,,,,,,,,right,0.0345268249512,,,,,participant13,28,59.7201018899,M,trial,2017_May_28_1702,
,,0.62,"[-2.25, 0]",/sounds/legit/left35.wav,,,,,1,5,40,24,,,,,,,,,,,,,,,left,0.268525123596,,,,,participant13,28,59.7201018899,M,trial,2017_May_28_1702,
,,0.49,"[2.25, 0]",/sounds/legit/right35.wav,,,,,1,6,41,8,,,,,,,,,,,,,,,right,0.28480386734,,,,,participant13,28,59.7201018899,M,trial,2017_May_28_1702,
,,0.36,"[-2.25, 0]",/sounds/legit/left35.wav,,,,,1,7,42,22,,,,,,,,,,,,,,,left,0.385246038437,,,,,participant13,28,59.7201018899,M,trial,2017_May_28_1702,
,,0.62,"[0, 0]",/sounds/legit/equal.wav,,,,,1,8,43,4,,,,,,,,,,,,,,,left,0.485729932785,,,,,participant13,28,59.7201018899,M,trial,2017_May_28_1702,
,,0.49,"[4.5, 0]",/sounds/legit/right70.wav,,,,,1,9,44,13,,,,,,,,,,,,,,,right,0.251811027527,,,,,participant13,28,59.7201018899,M,trial,2017_May_28_1702,
,,0.62,"[6.75, 0]",/sounds/legit/right100.wav,,,,,1,10,45,19,,,,,,,,,,,,,,,right,0.402249097824,,,,,participant13,28,59.7201018899,M,trial,2017_May_28_1702,
,,0.49,"[-2.25, 0]",/sounds/legit/left35.wav,,,,,1,11,46,23,,,,,,,,,,,,,,,left,0.302133798599,,,,,participant13,28,59.7201018899,M,trial,2017_May_28_1702,
,,0.23,"[0, 0]",/sounds/legit/equal.wav,,,,,1,12,47,1,,,,,,,,,,,,,,,left,0.402158975601,,,,,participant13,28,59.7201018899,M,trial,2017_May_28_1702,
,,0.49,"[0, 0]",/sounds/legit/equal.wav,,,,,1,13,48,3,,,,,,,,,,,,,,,left,1.10390210152,,,,,participant13,28,59.7201018899,M,trial,2017_May_28_1702,
,,0.1,"[2.25, 0]",/sounds/legit/right35.wav,,,,,1,14,49,5,,,,,,,,,,,,,,,right,0.268547058105,,,,,participant13,28,59.7201018899,M,trial,2017_May_28_1702,
,,0.1,"[-4.5, 0]",/sounds/legit/left70.wav,,,,,1,15,50,25,,,,,,,,,,,,,,,left,0.251873970032,,,,,participant13,28,59.7201018899,M,trial,2017_May_28_1702,
,,0.23,"[2.25, 0]",/sounds/legit/right35.wav,,,,,1,16,51,6,,,,,,,,,,,,,,,right,0.285213947296,,,,,participant13,28,59.7201018899,M,trial,2017_May_28_1702,
,,0.23,"[-4.5, 0]",/sounds/legit/left70.wav,,,,,1,17,52,26,,,,,,,,,,,,,,,left,0.35212802887,,,,,participant13,28,59.7201018899,M,trial,2017_May_28_1702,
,,0.36,"[6.75, 0]",/sounds/legit/right100.wav,,,,,1,18,53,17,,,,,,,,,,,,,,,right,0.151500940323,,,,,participant13,28,59.7201018899,M,trial,2017_May_28_1702,
,,0.23,"[6.75, 0]",/sounds/legit/right100.wav,,,,,1,19,54,16,,,,,,,,,,,,,,,right,0.285249233246,,,,,participant13,28,59.7201018899,M,trial,2017_May_28_1702,
,,0.1,"[-2.25, 0]",/sounds/legit/left35.wav,,,,,1,20,55,20,,,,,,,,,,,,,,,left,0.168298959732,,,,,participant13,28,59.7201018899,M,trial,2017_May_28_1702,
,,0.36,"[4.5, 0]",/sounds/legit/right70.wav,,,,,1,21,56,12,,,,,,,,,,,,,,,right,0.0680758953094,,,,,participant13,28,59.7201018899,M,trial,2017_May_28_1702,
,,0.1,"[-6.75, 0]",/sounds/legit/left100.wav,,,,,1,22,57,30,,,,,,,,,,,,,,,left,0.20169210434,,,,,participant13,28,59.7201018899,M,trial,2017_May_28_1702,
,,0.36,"[0, 0]",/sounds/legit/equal.wav,,,,,1,23,58,2,,,,,,,,,,,,,,,left,1.1537630558,,,,,participant13,28,59.7201018899,M,trial,2017_May_28_1702,
,,0.23,"[-2.25, 0]",/sounds/legit/left35.wav,,,,,1,24,59,21,,,,,,,,,,,,,,,left,0.318785905838,,,,,participant13,28,59.7201018899,M,trial,2017_May_28_1702,
,,0.36,"[-6.75, 0]",/sounds/legit/left100.wav,,,,,1,25,60,32,,,,,,,,,,,,,,,left,0.218440055847,,,,,participant13,28,59.7201018899,M,trial,2017_May_28_1702,
,,0.1,"[0, 0]",/sounds/legit/equal.wav,,,,,1,26,61,0,,,,,,,,,,,,,,,left,0.535658836365,,,,,participant13,28,59.7201018899,M,trial,2017_May_28_1702,
,,0.49,"[-6.75, 0]",/sounds/legit/left100.wav,,,,,1,27,62,33,,,,,,,,,,,,,,,left,0.218371868134,,,,,participant13,28,59.7201018899,M,trial,2017_May_28_1702,
,,0.36,"[-4.5, 0]",/sounds/legit/left70.wav,,,,,1,28,63,27,,,,,,,,,,,,,,,left,0.118118047714,,,,,participant13,28,59.7201018899,M,trial,2017_May_28_1702,
,,0.62,"[2.25, 0]",/sounds/legit/right35.wav,,,,,1,29,64,9,,,,,,,,,,,,,,,right,0.185391902924,,,,,participant13,28,59.7201018899,M,trial,2017_May_28_1702,
,,0.62,"[-6.75, 0]",/sounds/legit/left100.wav,,,,,1,30,65,34,,,,,,,,,,,,,,,left,1.45429897308,,,,,participant13,28,59.7201018899,M,trial,2017_May_28_1702,
,,0.62,"[4.5, 0]",/sounds/legit/right70.wav,,,,,1,31,66,14,,,,,,,,,,,,,,,right,0.2685110569,,,,,participant13,28,59.7201018899,M,trial,2017_May_28_1702,
,,0.36,"[2.25, 0]",/sounds/legit/right35.wav,,,,,1,32,67,7,,,,,,,,,,,,,,,right,0.151744842529,,,,,participant13,28,59.7201018899,M,trial,2017_May_28_1702,
,,0.1,"[6.75, 0]",/sounds/legit/right100.wav,,,,,1,33,68,15,,,,,,,,,,,,,,,right,0.251754045486,,,,,participant13,28,59.7201018899,M,trial,2017_May_28_1702,
,,0.23,"[4.5, 0]",/sounds/legit/right70.wav,,,,,1,34,69,11,,,,,,,,,,,,,,,right,0.201712846756,,,,,participant13,28,59.7201018899,M,trial,2017_May_28_1702,
,,0.1,"[0, 0]",/sounds/legit/equal.wav,,,,,2,0,70,0,,,,,,,,,,,,,,,left,0.953447818756,,,,,participant13,28,59.7201018899,M,trial,2017_May_28_1702,
,,0.1,"[4.5, 0]",/sounds/legit/right70.wav,,,,,2,1,71,10,,,,,,,,,,,,,,,right,0.0680391788483,,,,,participant13,28,59.7201018899,M,trial,2017_May_28_1702,
,,0.36,"[6.75, 0]",/sounds/legit/right100.wav,,,,,2,2,72,17,,,,,,,,,,,,,,,right,0.101840019226,,,,,participant13,28,59.7201018899,M,trial,2017_May_28_1702,
,,0.1,"[-2.25, 0]",/sounds/legit/left35.wav,,,,,2,3,73,20,,,,,,,,,,,,,,,left,0.20188999176,,,,,participant13,28,59.7201018899,M,trial,2017_May_28_1702,
,,0.36,"[2.25, 0]",/sounds/legit/right35.wav,,,,,2,4,74,7,,,,,,,,,,,,,,,right,0.218414068222,,,,,participant13,28,59.7201018899,M,trial,2017_May_28_1702,
,,0.36,"[-6.75, 0]",/sounds/legit/left100.wav,,,,,2,5,75,32,,,,,,,,,,,,,,,left,0.302076101303,,,,,participant13,28,59.7201018899,M,trial,2017_May_28_1702,
,,0.49,"[4.5, 0]",/sounds/legit/right70.wav,,,,,2,6,76,13,,,,,,,,,,,,,,,right,0.201757907867,,,,,participant13,28,59.7201018899,M,trial,2017_May_28_1702,
,,0.23,"[4.5, 0]",/sounds/legit/right70.wav,,,,,2,7,77,11,,,,,,,,,,,,,,,right,0.285145044327,,,,,participant13,28,59.7201018899,M,trial,2017_May_28_1702,
,,0.62,"[6.75, 0]",/sounds/legit/right100.wav,,,,,2,8,78,19,,,,,,,,,,,,,,,right,0.0515370368958,,,,,participant13,28,59.7201018899,M,trial,2017_May_28_1702,
,,0.36,"[-2.25, 0]",/sounds/legit/left35.wav,,,,,2,9,79,22,,,,,,,,,,,,,,,left,0.23477101326,,,,,participant13,28,59.7201018899,M,trial,2017_May_28_1702,
,,0.23,"[-2.25, 0]",/sounds/legit/left35.wav,,,,,2,10,80,21,,,,,,,,,,,,,,,left,0.201714038849,,,,,participant13,28,59.7201018899,M,trial,2017_May_28_1702,
,,0.62,"[-2.25, 0]",/sounds/legit/left35.wav,,,,,2,11,81,24,,,,,,,,,,,,,,,left,0.101745128632,,,,,participant13,28,59.7201018899,M,trial,2017_May_28_1702,
,,0.36,"[-4.5, 0]",/sounds/legit/left70.wav,,,,,2,12,82,27,,,,,,,,,,,,,,,left,0.151655197144,,,,,participant13,28,59.7201018899,M,trial,2017_May_28_1702,
,,0.1,"[6.75, 0]",/sounds/legit/right100.wav,,,,,2,13,83,15,,,,,,,,,,,,,,,right,0.284312963486,,,,,participant13,28,59.7201018899,M,trial,2017_May_28_1702,
,,0.62,"[4.5, 0]",/sounds/legit/right70.wav,,,,,2,14,84,14,,,,,,,,,,,,,,,right,0.251991987228,,,,,participant13,28,59.7201018899,M,trial,2017_May_28_1702,
,,0.49,"[-2.25, 0]",/sounds/legit/left35.wav,,,,,2,15,85,23,,,,,,,,,,,,,,,left,0.669619083405,,,,,participant13,28,59.7201018899,M,trial,2017_May_28_1702,
,,0.62,"[2.25, 0]",/sounds/legit/right35.wav,,,,,2,16,86,9,,,,,,,,,,,,,,,right,0.0849800109863,,,,,participant13,28,59.7201018899,M,trial,2017_May_28_1702,
,,0.1,"[-6.75, 0]",/sounds/legit/left100.wav,,,,,2,17,87,30,,,,,,,,,,,,,,,left,0.135001897812,,,,,participant13,28,59.7201018899,M,trial,2017_May_28_1702,
,,0.49,"[-6.75, 0]",/sounds/legit/left100.wav,,,,,2,18,88,33,,,,,,,,,,,,,,,left,0.235094070435,,,,,participant13,28,59.7201018899,M,trial,2017_May_28_1702,
,,0.23,"[0, 0]",/sounds/legit/equal.wav,,,,,2,19,89,1,,,,,,,,,,,,,,,right,1.33755493164,,,,,participant13,28,59.7201018899,M,trial,2017_May_28_1702,
,,0.36,"[0, 0]",/sounds/legit/equal.wav,,,,,2,20,90,2,,,,,,,,,,,,,,,right,0.25212097168,,,,,participant13,28,59.7201018899,M,trial,2017_May_28_1702,
,,0.62,"[-6.75, 0]",/sounds/legit/left100.wav,,,,,2,21,91,34,,,,,,,,,,,,,,,left,0.235383987427,,,,,participant13,28,59.7201018899,M,trial,2017_May_28_1702,
,,0.1,"[-4.5, 0]",/sounds/legit/left70.wav,,,,,2,22,92,25,,,,,,,,,,,,,,,left,0.11824297905,,,,,participant13,28,59.7201018899,M,trial,2017_May_28_1702,
,,0.23,"[6.75, 0]",/sounds/legit/right100.wav,,,,,2,23,93,16,,,,,,,,,,,,,,,right,0.151512861252,,,,,participant13,28,59.7201018899,M,trial,2017_May_28_1702,
,,0.62,"[0, 0]",/sounds/legit/equal.wav,,,,,2,24,94,4,,,,,,,,,,,,,,,left,1.1528699398,,,,,participant13,28,59.7201018899,M,trial,2017_May_28_1702,
,,0.62,"[-4.5, 0]",/sounds/legit/left70.wav,,,,,2,25,95,29,,,,,,,,,,,,,,,left,0.201645851135,,,,,participant13,28,59.7201018899,M,trial,2017_May_28_1702,
,,0.36,"[4.5, 0]",/sounds/legit/right70.wav,,,,,2,26,96,12,,,,,,,,,,,,,,,right,0.101516962051,,,,,participant13,28,59.7201018899,M,trial,2017_May_28_1702,
,,0.49,"[2.25, 0]",/sounds/legit/right35.wav,,,,,2,27,97,8,,,,,,,,,,,,,,,right,1.05477905273,,,,,participant13,28,59.7201018899,M,trial,2017_May_28_1702,
,,0.23,"[-6.75, 0]",/sounds/legit/left100.wav,,,,,2,28,98,31,,,,,,,,,,,,,,,left,0.285197973251,,,,,participant13,28,59.7201018899,M,trial,2017_May_28_1702,
,,0.49,"[-4.5, 0]",/sounds/legit/left70.wav,,,,,2,29,99,28,,,,,,,,,,,,,,,left,0.135257959366,,,,,participant13,28,59.7201018899,M,trial,2017_May_28_1702,
,,0.23,"[2.25, 0]",/sounds/legit/right35.wav,,,,,2,30,100,6,,,,,,,,,,,,,,,right,0.217477083206,,,,,participant13,28,59.7201018899,M,trial,2017_May_28_1702,
,,0.1,"[2.25, 0]",/sounds/legit/right35.wav,,,,,2,31,101,5,,,,,,,,,,,,,,,right,0.302109003067,,,,,participant13,28,59.7201018899,M,trial,2017_May_28_1702,
,,0.49,"[6.75, 0]",/sounds/legit/right100.wav,,,,,2,32,102,18,,,,,,,,,,,,,,,right,0.302188158035,,,,,participant13,28,59.7201018899,M,trial,2017_May_28_1702,
,,0.23,"[-4.5, 0]",/sounds/legit/left70.wav,,,,,2,33,103,26,,,,,,,,,,,,,,,left,0.101513147354,,,,,participant13,28,59.7201018899,M,trial,2017_May_28_1702,
,,0.49,"[0, 0]",/sounds/legit/equal.wav,,,,,2,34,104,3,,,,,,,,,,,,,,,right,0.636052846909,,,,,participant13,28,59.7201018899,M,trial,2017_May_28_1702,
,,0.23,"[0, 0]",/sounds/legit/equal.wav,,,,,3,0,105,1,,,,,,,,,,,,,,,left,1.18718099594,,,,,participant13,28,59.7201018899,M,trial,2017_May_28_1702,
,,0.36,"[-4.5, 0]",/sounds/legit/left70.wav,,,,,3,1,106,27,,,,,,,,,,,,,,,left,0.185126066208,,,,,participant13,28,59.7201018899,M,trial,2017_May_28_1702,
,,0.23,"[-2.25, 0]",/sounds/legit/left35.wav,,,,,3,2,107,21,,,,,,,,,,,,,,,left,0.652747869492,,,,,participant13,28,59.7201018899,M,trial,2017_May_28_1702,
,,0.62,"[2.25, 0]",/sounds/legit/right35.wav,,,,,3,3,108,9,,,,,,,,,,,,,,,right,0.0682890415192,,,,,participant13,28,59.7201018899,M,trial,2017_May_28_1702,
,,0.36,"[-2.25, 0]",/sounds/legit/left35.wav,,,,,3,4,109,22,,,,,,,,,,,,,,,left,0.235034942627,,,,,participant13,28,59.7201018899,M,trial,2017_May_28_1702,
,,0.36,"[0, 0]",/sounds/legit/equal.wav,,,,,3,5,110,2,,,,,,,,,,,,,,,left,0.853281021118,,,,,participant13,28,59.7201018899,M,trial,2017_May_28_1702,
,,0.49,"[6.75, 0]",/sounds/legit/right100.wav,,,,,3,6,111,18,,,,,,,,,,,,,,,right,0.268488168716,,,,,participant13,28,59.7201018899,M,trial,2017_May_28_1702,
,,0.49,"[-2.25, 0]",/sounds/legit/left35.wav,,,,,3,7,112,23,,,,,,,,,,,,,,,left,0.13482093811,,,,,participant13,28,59.7201018899,M,trial,2017_May_28_1702,
,,0.23,"[6.75, 0]",/sounds/legit/right100.wav,,,,,3,8,113,16,,,,,,,,,,,,,,,right,0.318640947342,,,,,participant13,28,59.7201018899,M,trial,2017_May_28_1702,
,,0.23,"[4.5, 0]",/sounds/legit/right70.wav,,,,,3,9,114,11,,,,,,,,,,,,,,,right,0.35197019577,,,,,participant13,28,59.7201018899,M,trial,2017_May_28_1702,
,,0.62,"[-6.75, 0]",/sounds/legit/left100.wav,,,,,3,10,115,34,,,,,,,,,,,,,,,left,1.00357317924,,,,,participant13,28,59.7201018899,M,trial,2017_May_28_1702,
,,0.1,"[2.25, 0]",/sounds/legit/right35.wav,,,,,3,11,116,5,,,,,,,,,,,,,,,right,0.268676996231,,,,,participant13,28,59.7201018899,M,trial,2017_May_28_1702,
,,0.49,"[0, 0]",/sounds/legit/equal.wav,,,,,3,12,117,3,,,,,,,,,,,,,,,left,0.518979072571,,,,,participant13,28,59.7201018899,M,trial,2017_May_28_1702,
,,0.1,"[-2.25, 0]",/sounds/legit/left35.wav,,,,,3,13,118,20,,,,,,,,,,,,,,,left,0.536002874374,,,,,participant13,28,59.7201018899,M,trial,2017_May_28_1702,
,,0.62,"[-2.25, 0]",/sounds/legit/left35.wav,,,,,3,14,119,24,,,,,,,,,,,,,,,left,0.252039909363,,,,,participant13,28,59.7201018899,M,trial,2017_May_28_1702,
,,0.49,"[4.5, 0]",/sounds/legit/right70.wav,,,,,3,15,120,13,,,,,,,,,,,,,,,right,0.235141992569,,,,,participant13,28,59.7201018899,M,trial,2017_May_28_1702,
,,0.1,"[4.5, 0]",/sounds/legit/right70.wav,,,,,3,16,121,10,,,,,,,,,,,,,,,right,0.168500900269,,,,,participant13,28,59.7201018899,M,trial,2017_May_28_1702,
,,0.49,"[2.25, 0]",/sounds/legit/right35.wav,,,,,3,17,122,8,,,,,,,,,,,,,,,right,0.201908111572,,,,,participant13,28,59.7201018899,M,trial,2017_May_28_1702,
,,0.36,"[4.5, 0]",/sounds/legit/right70.wav,,,,,3,18,123,12,,,,,,,,,,,,,,,right,0.352016925812,,,,,participant13,28,59.7201018899,M,trial,2017_May_28_1702,
,,0.36,"[-6.75, 0]",/sounds/legit/left100.wav,,,,,3,19,124,32,,,,,,,,,,,,,,,left,0.285206079483,,,,,participant13,28,59.7201018899,M,trial,2017_May_28_1702,
,,0.49,"[-6.75, 0]",/sounds/legit/left100.wav,,,,,3,20,125,33,,,,,,,,,,,,,,,left,0.31865811348,,,,,participant13,28,59.7201018899,M,trial,2017_May_28_1702,
,,0.1,"[6.75, 0]",/sounds/legit/right100.wav,,,,,3,21,126,15,,,,,,,,,,,,,,,right,0.302037000656,,,,,participant13,28,59.7201018899,M,trial,2017_May_28_1702,
,,0.49,"[-4.5, 0]",/sounds/legit/left70.wav,,,,,3,22,127,28,,,,,,,,,,,,,,,left,0.251610994339,,,,,participant13,28,59.7201018899,M,trial,2017_May_28_1702,
,,0.36,"[6.75, 0]",/sounds/legit/right100.wav,,,,,3,23,128,17,,,,,,,,,,,,,,,right,0.26865696907,,,,,participant13,28,59.7201018899,M,trial,2017_May_28_1702,
,,0.1,"[-6.75, 0]",/sounds/legit/left100.wav,,,,,3,24,129,30,,,,,,,,,,,,,,,left,0.285165786743,,,,,participant13,28,59.7201018899,M,trial,2017_May_28_1702,
,,0.23,"[-6.75, 0]",/sounds/legit/left100.wav,,,,,3,25,130,31,,,,,,,,,,,,,,,left,0.35215306282,,,,,participant13,28,59.7201018899,M,trial,2017_May_28_1702,
,,0.1,"[0, 0]",/sounds/legit/equal.wav,,,,,3,26,131,0,,,,,,,,,,,,,,,left,0.852905035019,,,,,participant13,28,59.7201018899,M,trial,2017_May_28_1702,
,,0.36,"[2.25, 0]",/sounds/legit/right35.wav,,,,,3,27,132,7,,,,,,,,,,,,,,,right,0.285009860992,,,,,participant13,28,59.7201018899,M,trial,2017_May_28_1702,
,,0.23,"[-4.5, 0]",/sounds/legit/left70.wav,,,,,3,28,133,26,,,,,,,,,,,,,,,left,0.318390846252,,,,,participant13,28,59.7201018899,M,trial,2017_May_28_1702,
,,0.62,"[6.75, 0]",/sounds/legit/right100.wav,,,,,3,29,134,19,,,,,,,,,,,,,,,right,0.301131010056,,,,,participant13,28,59.7201018899,M,trial,2017_May_28_1702,
,,0.23,"[2.25, 0]",/sounds/legit/right35.wav,,,,,3,30,135,6,,,,,,,,,,,,,,,right,0.419142007828,,,,,participant13,28,59.7201018899,M,trial,2017_May_28_1702,
,,0.1,"[-4.5, 0]",/sounds/legit/left70.wav,,,,,3,31,136,25,,,,,,,,,,,,,,,left,0.418869972229,,,,,participant13,28,59.7201018899,M,trial,2017_May_28_1702,
,,0.62,"[0, 0]",/sounds/legit/equal.wav,,,,,3,32,137,4,,,,,,,,,,,,,,,right,0.351031064987,,,,,participant13,28,59.7201018899,M,trial,2017_May_28_1702,
,,0.62,"[-4.5, 0]",/sounds/legit/left70.wav,,,,,3,33,138,29,,,,,,,,,,,,,,,left,0.435689926147,,,,,participant13,28,59.7201018899,M,trial,2017_May_28_1702,
,,0.62,"[4.5, 0]",/sounds/legit/right70.wav,,,,,3,34,139,14,,,,,,,,,,,,,,,right,0.452151060104,,,,,participant13,28,59.7201018899,M,trial,2017_May_28_1702,
,,0.23,"[0, 0]",/sounds/legit/equal.wav,,,,,4,0,140,1,,,,,,,,,,,,,,,left,0.585778951645,,,,,participant13,28,59.7201018899,M,trial,2017_May_28_1702,
,,0.49,"[-6.75, 0]",/sounds/legit/left100.wav,,,,,4,1,141,33,,,,,,,,,,,,,,,left,0.435708999634,,,,,participant13,28,59.7201018899,M,trial,2017_May_28_1702,
,,0.62,"[4.5, 0]",/sounds/legit/right70.wav,,,,,4,2,142,14,,,,,,,,,,,,,,,right,0.419046878815,,,,,participant13,28,59.7201018899,M,trial,2017_May_28_1702,
,,0.36,"[-6.75, 0]",/sounds/legit/left100.wav,,,,,4,3,143,32,,,,,,,,,,,,,,,left,0.434553861618,,,,,participant13,28,59.7201018899,M,trial,2017_May_28_1702,
,,0.23,"[4.5, 0]",/sounds/legit/right70.wav,,,,,4,4,144,11,,,,,,,,,,,,,,,right,0.368772029877,,,,,participant13,28,59.7201018899,M,trial,2017_May_28_1702,
,,0.62,"[-2.25, 0]",/sounds/legit/left35.wav,,,,,4,5,145,24,,,,,,,,,,,,,,,left,0.335649967194,,,,,participant13,28,59.7201018899,M,trial,2017_May_28_1702,
,,0.49,"[4.5, 0]",/sounds/legit/right70.wav,,,,,4,6,146,13,,,,,,,,,,,,,,,right,0.318374872208,,,,,participant13,28,59.7201018899,M,trial,2017_May_28_1702,
,,0.49,"[-4.5, 0]",/sounds/legit/left70.wav,,,,,4,7,147,28,,,,,,,,,,,,,,,left,0.368762969971,,,,,participant13,28,59.7201018899,M,trial,2017_May_28_1702,
,,0.1,"[-6.75, 0]",/sounds/legit/left100.wav,,,,,4,8,148,30,,,,,,,,,,,,,,,left,0.536175012589,,,,,participant13,28,59.7201018899,M,trial,2017_May_28_1702,
,,0.62,"[0, 0]",/sounds/legit/equal.wav,,,,,4,9,149,4,,,,,,,,,,,,,,,right,0.419030189514,,,,,participant13,28,59.7201018899,M,trial,2017_May_28_1702,
,,0.62,"[-4.5, 0]",/sounds/legit/left70.wav,,,,,4,10,150,29,,,,,,,,,,,,,,,left,0.334401845932,,,,,participant13,28,59.7201018899,M,trial,2017_May_28_1702,
,,0.36,"[4.5, 0]",/sounds/legit/right70.wav,,,,,4,11,151,12,,,,,,,,,,,,,,,right,0.23499083519,,,,,participant13,28,59.7201018899,M,trial,2017_May_28_1702,
,,0.49,"[2.25, 0]",/sounds/legit/right35.wav,,,,,4,12,152,8,,,,,,,,,,,,,,,right,0.452420949936,,,,,participant13,28,59.7201018899,M,trial,2017_May_28_1702,
,,0.1,"[6.75, 0]",/sounds/legit/right100.wav,,,,,4,13,153,15,,,,,,,,,,,,,,,right,0.368671178818,,,,,participant13,28,59.7201018899,M,trial,2017_May_28_1702,
,,0.23,"[-6.75, 0]",/sounds/legit/left100.wav,,,,,4,14,154,31,,,,,,,,,,,,,,,left,0.435555934906,,,,,participant13,28,59.7201018899,M,trial,2017_May_28_1702,
,,0.23,"[2.25, 0]",/sounds/legit/right35.wav,,,,,4,15,155,6,,,,,,,,,,,,,,,right,0.435572147369,,,,,participant13,28,59.7201018899,M,trial,2017_May_28_1702,
,,0.36,"[-4.5, 0]",/sounds/legit/left70.wav,,,,,4,16,156,27,,,,,,,,,,,,,,,left,0.385649204254,,,,,participant13,28,59.7201018899,M,trial,2017_May_28_1702,
,,0.1,"[4.5, 0]",/sounds/legit/right70.wav,,,,,4,17,157,10,,,,,,,,,,,,,,,right,0.385470151901,,,,,participant13,28,59.7201018899,M,trial,2017_May_28_1702,
,,0.1,"[2.25, 0]",/sounds/legit/right35.wav,,,,,4,18,158,5,,,,,,,,,,,,,,,right,0.652739048004,,,,,participant13,28,59.7201018899,M,trial,2017_May_28_1702,
,,0.23,"[-2.25, 0]",/sounds/legit/left35.wav,,,,,4,19,159,21,,,,,,,,,,,,,,,left,0.402451038361,,,,,participant13,28,59.7201018899,M,trial,2017_May_28_1702,
,,0.49,"[0, 0]",/sounds/legit/equal.wav,,,,,4,20,160,3,,,,,,,,,,,,,,,left,2.30620217323,,,,,participant13,28,59.7201018899,M,trial,2017_May_28_1702,
,,0.49,"[-2.25, 0]",/sounds/legit/left35.wav,,,,,4,21,161,23,,,,,,,,,,,,,,,left,0.435705900192,,,,,participant13,28,59.7201018899,M,trial,2017_May_28_1702,
,,0.36,"[-2.25, 0]",/sounds/legit/left35.wav,,,,,4,22,162,22,,,,,,,,,,,,,,,left,0.385400056839,,,,,participant13,28,59.7201018899,M,trial,2017_May_28_1702,
,,0.36,"[6.75, 0]",/sounds/legit/right100.wav,,,,,4,23,163,17,,,,,,,,,,,,,,,right,0.301938056946,,,,,participant13,28,59.7201018899,M,trial,2017_May_28_1702,
,,0.62,"[6.75, 0]",/sounds/legit/right100.wav,,,,,4,24,164,19,,,,,,,,,,,,,,,right,0.352004051208,,,,,participant13,28,59.7201018899,M,trial,2017_May_28_1702,
,,0.23,"[6.75, 0]",/sounds/legit/right100.wav,,,,,4,25,165,16,,,,,,,,,,,,,,,right,0.43572807312,,,,,participant13,28,59.7201018899,M,trial,2017_May_28_1702,
,,0.62,"[-6.75, 0]",/sounds/legit/left100.wav,,,,,4,26,166,34,,,,,,,,,,,,,,,left,0.469108819962,,,,,participant13,28,59.7201018899,M,trial,2017_May_28_1702,
,,0.49,"[6.75, 0]",/sounds/legit/right100.wav,,,,,4,27,167,18,,,,,,,,,,,,,,,right,0.235114812851,,,,,participant13,28,59.7201018899,M,trial,2017_May_28_1702,
,,0.1,"[-2.25, 0]",/sounds/legit/left35.wav,,,,,4,28,168,20,,,,,,,,,,,,,,,left,0.552443027496,,,,,participant13,28,59.7201018899,M,trial,2017_May_28_1702,
,,0.23,"[-4.5, 0]",/sounds/legit/left70.wav,,,,,4,29,169,26,,,,,,,,,,,,,,,left,0.385706186295,,,,,participant13,28,59.7201018899,M,trial,2017_May_28_1702,
,,0.36,"[0, 0]",/sounds/legit/equal.wav,,,,,4,30,170,2,,,,,,,,,,,,,,,left,0.402229070663,,,,,participant13,28,59.7201018899,M,trial,2017_May_28_1702,
,,0.1,"[0, 0]",/sounds/legit/equal.wav,,,,,4,31,171,0,,,,,,,,,,,,,,,left,0.385565042496,,,,,participant13,28,59.7201018899,M,trial,2017_May_28_1702,
,,0.1,"[-4.5, 0]",/sounds/legit/left70.wav,,,,,4,32,172,25,,,,,,,,,,,,,,,left,0.385273933411,,,,,participant13,28,59.7201018899,M,trial,2017_May_28_1702,
,,0.62,"[2.25, 0]",/sounds/legit/right35.wav,,,,,4,33,173,9,,,,,,,,,,,,,,,right,0.252040147781,,,,,participant13,28,59.7201018899,M,trial,2017_May_28_1702,
,,0.36,"[2.25, 0]",/sounds/legit/right35.wav,,,,,4,34,174,7,,,,,,,,,,,,,,,right,0.452362060547,,,,,participant13,28,59.7201018899,M,trial,2017_May_28_1702,
,,0.23,"[-4.5, 0]",/sounds/legit/left70.wav,,,,,5,0,175,26,,,,,,,,,,,,,,,left,0.636098146439,,,,,participant13,28,59.7201018899,M,trial,2017_May_28_1702,
,,0.36,"[0, 0]",/sounds/legit/equal.wav,,,,,5,1,176,2,,,,,,,,,,,,,,,left,1.32077288628,,,,,participant13,28,59.7201018899,M,trial,2017_May_28_1702,
,,0.36,"[2.25, 0]",/sounds/legit/right35.wav,,,,,5,2,177,7,,,,,,,,,,,,,,,right,0.35219502449,,,,,participant13,28,59.7201018899,M,trial,2017_May_28_1702,
,,0.36,"[-6.75, 0]",/sounds/legit/left100.wav,,,,,5,3,178,32,,,,,,,,,,,,,,,left,0.36869096756,,,,,participant13,28,59.7201018899,M,trial,2017_May_28_1702,
,,0.49,"[-2.25, 0]",/sounds/legit/left35.wav,,,,,5,4,179,23,,,,,,,,,,,,,,,left,0.318922996521,,,,,participant13,28,59.7201018899,M,trial,2017_May_28_1702,
,,0.1,"[2.25, 0]",/sounds/legit/right35.wav,,,,,5,5,180,5,,,,,,,,,,,,,,,right,0.669543981552,,,,,participant13,28,59.7201018899,M,trial,2017_May_28_1702,
,,0.1,"[4.5, 0]",/sounds/legit/right70.wav,,,,,5,6,181,10,,,,,,,,,,,,,,,right,0.652652978897,,,,,participant13,28,59.7201018899,M,trial,2017_May_28_1702,
,,0.23,"[-2.25, 0]",/sounds/legit/left35.wav,,,,,5,7,182,21,,,,,,,,,,,,,,,left,0.535806894302,,,,,participant13,28,59.7201018899,M,trial,2017_May_28_1702,
,,0.62,"[-2.25, 0]",/sounds/legit/left35.wav,,,,,5,8,183,24,,,,,,,,,,,,,,,right,0.786547899246,,,,,participant13,28,59.7201018899,M,trial,2017_May_28_1702,
,,0.62,"[-4.5, 0]",/sounds/legit/left70.wav,,,,,5,9,184,29,,,,,,,,,,,,,,,right,0.752639055252,,,,,participant13,28,59.7201018899,M,trial,2017_May_28_1702,
,,0.62,"[6.75, 0]",/sounds/legit/right100.wav,,,,,5,10,185,19,,,,,,,,,,,,,,,right,0.351842880249,,,,,participant13,28,59.7201018899,M,trial,2017_May_28_1702,
,,0.23,"[-6.75, 0]",/sounds/legit/left100.wav,,,,,5,11,186,31,,,,,,,,,,,,,,,left,0.485627889633,,,,,participant13,28,59.7201018899,M,trial,2017_May_28_1702,
,,0.1,"[-6.75, 0]",/sounds/legit/left100.wav,,,,,5,12,187,30,,,,,,,,,,,,,,,left,0.45232796669,,,,,participant13,28,59.7201018899,M,trial,2017_May_28_1702,
,,0.1,"[6.75, 0]",/sounds/legit/right100.wav,,,,,5,13,188,15,,,,,,,,,,,,,,,right,0.368760108948,,,,,participant13,28,59.7201018899,M,trial,2017_May_28_1702,
,,0.23,"[2.25, 0]",/sounds/legit/right35.wav,,,,,5,14,189,6,,,,,,,,,,,,,,,right,0.286582946777,,,,,participant13,28,59.7201018899,M,trial,2017_May_28_1702,
,,0.1,"[-2.25, 0]",/sounds/legit/left35.wav,,,,,5,15,190,20,,,,,,,,,,,,,,,left,0.368803977966,,,,,participant13,28,59.7201018899,M,trial,2017_May_28_1702,
,,0.23,"[0, 0]",/sounds/legit/equal.wav,,,,,5,16,191,1,,,,,,,,,,,,,,,left,1.38773012161,,,,,participant13,28,59.7201018899,M,trial,2017_May_28_1702,
,,0.23,"[4.5, 0]",/sounds/legit/right70.wav,,,,,5,17,192,11,,,,,,,,,,,,,,,right,0.318558216095,,,,,participant13,28,59.7201018899,M,trial,2017_May_28_1702,
,,0.49,"[2.25, 0]",/sounds/legit/right35.wav,,,,,5,18,193,8,,,,,,,,,,,,,,,right,0.268470048904,,,,,participant13,28,59.7201018899,M,trial,2017_May_28_1702,
,,0.49,"[-6.75, 0]",/sounds/legit/left100.wav,,,,,5,19,194,33,,,,,,,,,,,,,,,left,0.318470954895,,,,,participant13,28,59.7201018899,M,trial,2017_May_28_1702,
,,0.62,"[-6.75, 0]",/sounds/legit/left100.wav,,,,,5,20,195,34,,,,,,,,,,,,,,,left,1.88876414299,,,,,participant13,28,59.7201018899,M,trial,2017_May_28_1702,
,,0.62,"[0, 0]",/sounds/legit/equal.wav,,,,,5,21,196,4,,,,,,,,,,,,,,,left,3.27483010292,,,,,participant13,28,59.7201018899,M,trial,2017_May_28_1702,
,,0.49,"[6.75, 0]",/sounds/legit/right100.wav,,,,,5,22,197,18,,,,,,,,,,,,,,,right,0.118268966675,,,,,participant13,28,59.7201018899,M,trial,2017_May_28_1702,
,,0.36,"[-2.25, 0]",/sounds/legit/left35.wav,,,,,5,23,198,22,,,,,,,,,,,,,,,left,0.268644094467,,,,,participant13,28,59.7201018899,M,trial,2017_May_28_1702,
,,0.36,"[-4.5, 0]",/sounds/legit/left70.wav,,,,,5,24,199,27,,,,,,,,,,,,,,,left,0.36897110939,,,,,participant13,28,59.7201018899,M,trial,2017_May_28_1702,
,,0.1,"[0, 0]",/sounds/legit/equal.wav,,,,,5,25,200,0,,,,,,,,,,,,,,,left,0.987164974213,,,,,participant13,28,59.7201018899,M,trial,2017_May_28_1702,
,,0.49,"[0, 0]",/sounds/legit/equal.wav,,,,,5,26,201,3,,,,,,,,,,,,,,,left,0.636248111725,,,,,participant13,28,59.7201018899,M,trial,2017_May_28_1702,
,,0.49,"[4.5, 0]",/sounds/legit/right70.wav,,,,,5,27,202,13,,,,,,,,,,,,,,,right,0.335315942764,,,,,participant13,28,59.7201018899,M,trial,2017_May_28_1702,
,,0.62,"[4.5, 0]",/sounds/legit/right70.wav,,,,,5,28,203,14,,,,,,,,,,,,,,,right,0.435809850693,,,,,participant13,28,59.7201018899,M,trial,2017_May_28_1702,
,,0.62,"[2.25, 0]",/sounds/legit/right35.wav,,,,,5,29,204,9,,,,,,,,,,,,,,,left,1.08741188049,,,,,participant13,28,59.7201018899,M,trial,2017_May_28_1702,
,,0.49,"[-4.5, 0]",/sounds/legit/left70.wav,,,,,5,30,205,28,,,,,,,,,,,,,,,left,0.301931858063,,,,,participant13,28,59.7201018899,M,trial,2017_May_28_1702,
,,0.1,"[-4.5, 0]",/sounds/legit/left70.wav,,,,,5,31,206,25,,,,,,,,,,,,,,,left,0.301978111267,,,,,participant13,28,59.7201018899,M,trial,2017_May_28_1702,
,,0.36,"[4.5, 0]",/sounds/legit/right70.wav,,,,,5,32,207,12,,,,,,,,,,,,,,,right,0.285316944122,,,,,participant13,28,59.7201018899,M,trial,2017_May_28_1702,
,,0.36,"[6.75, 0]",/sounds/legit/right100.wav,,,,,5,33,208,17,,,,,,,,,,,,,,,right,0.368669033051,,,,,participant13,28,59.7201018899,M,trial,2017_May_28_1702,
,,0.23,"[6.75, 0]",/sounds/legit/right100.wav,,,,,5,34,209,16,,,,,,,,,,,,,,,right,0.302284002304,,,,,participant13,28,59.7201018899,M,trial,2017_May_28_1702,
,,0.36,"[2.25, 0]",/sounds/legit/right35.wav,,,,,6,0,210,7,,,,,,,,,,,,,,,right,0.352177143097,,,,,participant13,28,59.7201018899,M,trial,2017_May_28_1702,
,,0.36,"[-4.5, 0]",/sounds/legit/left70.wav,,,,,6,1,211,27,,,,,,,,,,,,,,,left,0.301956892014,,,,,participant13,28,59.7201018899,M,trial,2017_May_28_1702,
,,0.49,"[6.75, 0]",/sounds/legit/right100.wav,,,,,6,2,212,18,,,,,,,,,,,,,,,right,0.285278081894,,,,,participant13,28,59.7201018899,M,trial,2017_May_28_1702,
,,0.49,"[-6.75, 0]",/sounds/legit/left100.wav,,,,,6,3,213,33,,,,,,,,,,,,,,,left,0.419662952423,,,,,participant13,28,59.7201018899,M,trial,2017_May_28_1702,
,,0.36,"[6.75, 0]",/sounds/legit/right100.wav,,,,,6,4,214,17,,,,,,,,,,,,,,,right,0.435397863388,,,,,participant13,28,59.7201018899,M,trial,2017_May_28_1702,
,,0.23,"[6.75, 0]",/sounds/legit/right100.wav,,,,,6,5,215,16,,,,,,,,,,,,,,,right,0.30223107338,,,,,participant13,28,59.7201018899,M,trial,2017_May_28_1702,
,,0.62,"[6.75, 0]",/sounds/legit/right100.wav,,,,,6,6,216,19,,,,,,,,,,,,,,,right,0.652704000473,,,,,participant13,28,59.7201018899,M,trial,2017_May_28_1702,
,,0.49,"[0, 0]",/sounds/legit/equal.wav,,,,,6,7,217,3,,,,,,,,,,,,,,,right,0.452239990234,,,,,participant13,28,59.7201018899,M,trial,2017_May_28_1702,
,,0.1,"[-4.5, 0]",/sounds/legit/left70.wav,,,,,6,8,218,25,,,,,,,,,,,,,,,left,0.285164117813,,,,,participant13,28,59.7201018899,M,trial,2017_May_28_1702,
,,0.49,"[2.25, 0]",/sounds/legit/right35.wav,,,,,6,9,219,8,,,,,,,,,,,,,,,right,0.252153158188,,,,,participant13,28,59.7201018899,M,trial,2017_May_28_1702,
,,0.23,"[-4.5, 0]",/sounds/legit/left70.wav,,,,,6,10,220,26,,,,,,,,,,,,,,,left,0.335391998291,,,,,participant13,28,59.7201018899,M,trial,2017_May_28_1702,
,,0.36,"[-2.25, 0]",/sounds/legit/left35.wav,,,,,6,11,221,22,,,,,,,,,,,,,,,left,0.301785945892,,,,,participant13,28,59.7201018899,M,trial,2017_May_28_1702,
,,0.23,"[2.25, 0]",/sounds/legit/right35.wav,,,,,6,12,222,6,,,,,,,,,,,,,,,right,0.0503468513489,,,,,participant13,28,59.7201018899,M,trial,2017_May_28_1702,
,,0.1,"[4.5, 0]",/sounds/legit/right70.wav,,,,,6,13,223,10,,,,,,,,,,,,,,,right,0.285465955734,,,,,participant13,28,59.7201018899,M,trial,2017_May_28_1702,
,,0.23,"[4.5, 0]",/sounds/legit/right70.wav,,,,,6,14,224,11,,,,,,,,,,,,,,,right,0.419022798538,,,,,participant13,28,59.7201018899,M,trial,2017_May_28_1702,
,,0.36,"[4.5, 0]",/sounds/legit/right70.wav,,,,,6,15,225,12,,,,,,,,,,,,,,,right,0.302354097366,,,,,participant13,28,59.7201018899,M,trial,2017_May_28_1702,
,,0.49,"[4.5, 0]",/sounds/legit/right70.wav,,,,,6,16,226,13,,,,,,,,,,,,,,,right,0.352028846741,,,,,participant13,28,59.7201018899,M,trial,2017_May_28_1702,
,,0.23,"[0, 0]",/sounds/legit/equal.wav,,,,,6,17,227,1,,,,,,,,,,,,,,,left,1.02004098892,,,,,participant13,28,59.7201018899,M,trial,2017_May_28_1702,
,,0.23,"[-2.25, 0]",/sounds/legit/left35.wav,,,,,6,18,228,21,,,,,,,,,,,,,,,left,0.419503927231,,,,,participant13,28,59.7201018899,M,trial,2017_May_28_1702,
,,0.62,"[-4.5, 0]",/sounds/legit/left70.wav,,,,,6,19,229,29,,,,,,,,,,,,,,,left,0.402484178543,,,,,participant13,28,59.7201018899,M,trial,2017_May_28_1702,
,,0.1,"[-6.75, 0]",/sounds/legit/left100.wav,,,,,6,20,230,30,,,,,,,,,,,,,,,left,0.318503856659,,,,,participant13,28,59.7201018899,M,trial,2017_May_28_1702,
,,0.62,"[4.5, 0]",/sounds/legit/right70.wav,,,,,6,21,231,14,,,,,,,,,,,,,,,right,0.285341978073,,,,,participant13,28,59.7201018899,M,trial,2017_May_28_1702,
,,0.62,"[2.25, 0]",/sounds/legit/right35.wav,,,,,6,22,232,9,,,,,,,,,,,,,,,right,0.46936583519,,,,,participant13,28,59.7201018899,M,trial,2017_May_28_1702,
,,0.1,"[2.25, 0]",/sounds/legit/right35.wav,,,,,6,23,233,5,,,,,,,,,,,,,,,right,0.619467020035,,,,,participant13,28,59.7201018899,M,trial,2017_May_28_1702,
,,0.36,"[0, 0]",/sounds/legit/equal.wav,,,,,6,24,234,2,,,,,,,,,,,,,,,left,0.419154882431,,,,,participant13,28,59.7201018899,M,trial,2017_May_28_1702,
,,0.62,"[0, 0]",/sounds/legit/equal.wav,,,,,6,25,235,4,,,,,,,,,,,,,,,left,2.55663013458,,,,,participant13,28,59.7201018899,M,trial,2017_May_28_1702,
,,0.62,"[-2.25, 0]",/sounds/legit/left35.wav,,,,,6,26,236,24,,,,,,,,,,,,,,,left,0.368723869324,,,,,participant13,28,59.7201018899,M,trial,2017_May_28_1702,
,,0.1,"[6.75, 0]",/sounds/legit/right100.wav,,,,,6,27,237,15,,,,,,,,,,,,,,,right,0.335505008698,,,,,participant13,28,59.7201018899,M,trial,2017_May_28_1702,
,,0.36,"[-6.75, 0]",/sounds/legit/left100.wav,,,,,6,28,238,32,,,,,,,,,,,,,,,left,0.18514418602,,,,,participant13,28,59.7201018899,M,trial,2017_May_28_1702,
,,0.1,"[0, 0]",/sounds/legit/equal.wav,,,,,6,29,239,0,,,,,,,,,,,,,,,left,0.802842855453,,,,,participant13,28,59.7201018899,M,trial,2017_May_28_1702,
,,0.1,"[-2.25, 0]",/sounds/legit/left35.wav,,,,,6,30,240,20,,,,,,,,,,,,,,,left,0.335164070129,,,,,participant13,28,59.7201018899,M,trial,2017_May_28_1702,
,,0.23,"[-6.75, 0]",/sounds/legit/left100.wav,,,,,6,31,241,31,,,,,,,,,,,,,,,left,0.352118015289,,,,,participant13,28,59.7201018899,M,trial,2017_May_28_1702,
,,0.49,"[-4.5, 0]",/sounds/legit/left70.wav,,,,,6,32,242,28,,,,,,,,,,,,,,,left,0.368698835373,,,,,participant13,28,59.7201018899,M,trial,2017_May_28_1702,
,,0.49,"[-2.25, 0]",/sounds/legit/left35.wav,,,,,6,33,243,23,,,,,,,,,,,,,,,left,0.469233036041,,,,,participant13,28,59.7201018899,M,trial,2017_May_28_1702,
,,0.62,"[-6.75, 0]",/sounds/legit/left100.wav,,,,,6,34,244,34,,,,,,,,,,,,,,,left,0.352079153061,,,,,participant13,28,59.7201018899,M,trial,2017_May_28_1702,
,,0.36,"[-4.5, 0]",/sounds/legit/left70.wav,,,,,7,0,245,27,,,,,,,,,,,,,,,left,0.318744897842,,,,,participant13,28,59.7201018899,M,trial,2017_May_28_1702,
,,0.1,"[-4.5, 0]",/sounds/legit/left70.wav,,,,,7,1,246,25,,,,,,,,,,,,,,,left,0.335433959961,,,,,participant13,28,59.7201018899,M,trial,2017_May_28_1702,
,,0.49,"[0, 0]",/sounds/legit/equal.wav,,,,,7,2,247,3,,,,,,,,,,,,,,,left,0.385622024536,,,,,participant13,28,59.7201018899,M,trial,2017_May_28_1702,
,,0.36,"[-2.25, 0]",/sounds/legit/left35.wav,,,,,7,3,248,22,,,,,,,,,,,,,,,left,0.285300970078,,,,,participant13,28,59.7201018899,M,trial,2017_May_28_1702,
,,0.23,"[2.25, 0]",/sounds/legit/right35.wav,,,,,7,4,249,6,,,,,,,,,,,,,,,right,0.2684237957,,,,,participant13,28,59.7201018899,M,trial,2017_May_28_1702,
,,0.49,"[4.5, 0]",/sounds/legit/right70.wav,,,,,7,5,250,13,,,,,,,,,,,,,,,right,0.335546970367,,,,,participant13,28,59.7201018899,M,trial,2017_May_28_1702,
,,0.49,"[6.75, 0]",/sounds/legit/right100.wav,,,,,7,6,251,18,,,,,,,,,,,,,,,right,0.352050065994,,,,,participant13,28,59.7201018899,M,trial,2017_May_28_1702,
,,0.1,"[0, 0]",/sounds/legit/equal.wav,,,,,7,7,252,0,,,,,,,,,,,,,,,right,0.78650021553,,,,,participant13,28,59.7201018899,M,trial,2017_May_28_1702,
,,0.23,"[6.75, 0]",/sounds/legit/right100.wav,,,,,7,8,253,16,,,,,,,,,,,,,,,right,0.353023052216,,,,,participant13,28,59.7201018899,M,trial,2017_May_28_1702,
,,0.23,"[-6.75, 0]",/sounds/legit/left100.wav,,,,,7,9,254,31,,,,,,,,,,,,,,,left,0.201723814011,,,,,participant13,28,59.7201018899,M,trial,2017_May_28_1702,
,,0.62,"[4.5, 0]",/sounds/legit/right70.wav,,,,,7,10,255,14,,,,,,,,,,,,,,,right,0.301880121231,,,,,participant13,28,59.7201018899,M,trial,2017_May_28_1702,
,,0.36,"[2.25, 0]",/sounds/legit/right35.wav,,,,,7,11,256,7,,,,,,,,,,,,,,,right,0.168324947357,,,,,participant13,28,59.7201018899,M,trial,2017_May_28_1702,
,,0.62,"[-4.5, 0]",/sounds/legit/left70.wav,,,,,7,12,257,29,,,,,,,,,,,,,,,left,0.268706083298,,,,,participant13,28,59.7201018899,M,trial,2017_May_28_1702,
,,0.36,"[6.75, 0]",/sounds/legit/right100.wav,,,,,7,13,258,17,,,,,,,,,,,,,,,right,0.285159826279,,,,,participant13,28,59.7201018899,M,trial,2017_May_28_1702,
,,0.49,"[2.25, 0]",/sounds/legit/right35.wav,,,,,7,14,259,8,,,,,,,,,,,,,,,right,0.36882019043,,,,,participant13,28,59.7201018899,M,trial,2017_May_28_1702,
,,0.62,"[-6.75, 0]",/sounds/legit/left100.wav,,,,,7,15,260,34,,,,,,,,,,,,,,,left,0.268463134766,,,,,participant13,28,59.7201018899,M,trial,2017_May_28_1702,
,,0.62,"[0, 0]",/sounds/legit/equal.wav,,,,,7,16,261,4,,,,,,,,,,,,,,,right,0.335813999176,,,,,participant13,28,59.7201018899,M,trial,2017_May_28_1702,
,,0.1,"[-2.25, 0]",/sounds/legit/left35.wav,,,,,7,17,262,20,,,,,,,,,,,,,,,left,0.535633087158,,,,,participant13,28,59.7201018899,M,trial,2017_May_28_1702,
,,0.1,"[4.5, 0]",/sounds/legit/right70.wav,,,,,7,18,263,10,,,,,,,,,,,,,,,right,0.151838064194,,,,,participant13,28,59.7201018899,M,trial,2017_May_28_1702,
,,0.62,"[2.25, 0]",/sounds/legit/right35.wav,,,,,7,19,264,9,,,,,,,,,,,,,,,right,0.0181379318237,,,,,participant13,28,59.7201018899,M,trial,2017_May_28_1702,
,,0.23,"[-2.25, 0]",/sounds/legit/left35.wav,,,,,7,20,265,21,,,,,,,,,,,,,,,left,0.268522977829,,,,,participant13,28,59.7201018899,M,trial,2017_May_28_1702,
,,0.62,"[6.75, 0]",/sounds/legit/right100.wav,,,,,7,21,266,19,,,,,,,,,,,,,,,right,0.00128817558289,,,,,participant13,28,59.7201018899,M,trial,2017_May_28_1702,
,,0.23,"[4.5, 0]",/sounds/legit/right70.wav,,,,,7,22,267,11,,,,,,,,,,,,,,,right,0.101597070694,,,,,participant13,28,59.7201018899,M,trial,2017_May_28_1702,
,,0.49,"[-4.5, 0]",/sounds/legit/left70.wav,,,,,7,23,268,28,,,,,,,,,,,,,,,left,0.417927980423,,,,,participant13,28,59.7201018899,M,trial,2017_May_28_1702,
,,0.49,"[-2.25, 0]",/sounds/legit/left35.wav,,,,,7,24,269,23,,,,,,,,,,,,,,,left,0.301966190338,,,,,participant13,28,59.7201018899,M,trial,2017_May_28_1702,
,,0.36,"[4.5, 0]",/sounds/legit/right70.wav,,,,,7,25,270,12,,,,,,,,,,,,,,,right,0.151669979095,,,,,participant13,28,59.7201018899,M,trial,2017_May_28_1702,
,,0.1,"[6.75, 0]",/sounds/legit/right100.wav,,,,,7,26,271,15,,,,,,,,,,,,,,,right,0.168074846268,,,,,participant13,28,59.7201018899,M,trial,2017_May_28_1702,
,,0.23,"[0, 0]",/sounds/legit/equal.wav,,,,,7,27,272,1,,,,,,,,,,,,,,,left,0.619320869446,,,,,participant13,28,59.7201018899,M,trial,2017_May_28_1702,
,,0.36,"[-6.75, 0]",/sounds/legit/left100.wav,,,,,7,28,273,32,,,,,,,,,,,,,,,left,0.0846529006958,,,,,participant13,28,59.7201018899,M,trial,2017_May_28_1702,
,,0.1,"[-6.75, 0]",/sounds/legit/left100.wav,,,,,7,29,274,30,,,,,,,,,,,,,,,left,0.0346190929413,,,,,participant13,28,59.7201018899,M,trial,2017_May_28_1702,
,,0.36,"[0, 0]",/sounds/legit/equal.wav,,,,,7,30,275,2,,,,,,,,,,,,,,,left,0.58504986763,,,,,participant13,28,59.7201018899,M,trial,2017_May_28_1702,
,,0.62,"[-2.25, 0]",/sounds/legit/left35.wav,,,,,7,31,276,24,,,,,,,,,,,,,,,left,0.269221067429,,,,,participant13,28,59.7201018899,M,trial,2017_May_28_1702,
,,0.49,"[-6.75, 0]",/sounds/legit/left100.wav,,,,,7,32,277,33,,,,,,,,,,,,,,,left,0.118062973022,,,,,participant13,28,59.7201018899,M,trial,2017_May_28_1702,
,,0.23,"[-4.5, 0]",/sounds/legit/left70.wav,,,,,7,33,278,26,,,,,,,,,,,,,,,left,0.0512430667877,,,,,participant13,28,59.7201018899,M,trial,2017_May_28_1702,
,,0.1,"[2.25, 0]",/sounds/legit/right35.wav,,,,,7,34,279,5,,,,,,,,,,,,,,,right,0.118321895599,,,,,participant13,28,59.7201018899,M,trial,2017_May_28_1702,
,,0.62,"[2.25, 0]",/sounds/legit/right35.wav,,,,,8,0,280,9,,,,,,,,,,,,,,,right,0.101453065872,,,,,participant13,28,59.7201018899,M,trial,2017_May_28_1702,
,,0.62,"[-4.5, 0]",/sounds/legit/left70.wav,,,,,8,1,281,29,,,,,,,,,,,,,,,left,0.118149995804,,,,,participant13,28,59.7201018899,M,trial,2017_May_28_1702,
,,0.1,"[4.5, 0]",/sounds/legit/right70.wav,,,,,8,2,282,10,,,,,,,,,,,,,,,right,0.134896039963,,,,,participant13,28,59.7201018899,M,trial,2017_May_28_1702,
,,0.1,"[0, 0]",/sounds/legit/equal.wav,,,,,8,3,283,0,,,,,,,,,,,,,,,right,0.285077095032,,,,,participant13,28,59.7201018899,M,trial,2017_May_28_1702,
,,0.23,"[-6.75, 0]",/sounds/legit/left100.wav,,,,,8,4,284,31,,,,,,,,,,,,,,,left,0.13471198082,,,,,participant13,28,59.7201018899,M,trial,2017_May_28_1702,
,,0.1,"[-4.5, 0]",/sounds/legit/left70.wav,,,,,8,5,285,25,,,,,,,,,,,,,,,left,1.15355706215,,,,,participant13,28,59.7201018899,M,trial,2017_May_28_1702,
,,0.49,"[0, 0]",/sounds/legit/equal.wav,,,,,8,6,286,3,,,,,,,,,,,,,,,left,0.318441867828,,,,,participant13,28,59.7201018899,M,trial,2017_May_28_1702,
,,0.49,"[4.5, 0]",/sounds/legit/right70.wav,,,,,8,7,287,13,,,,,,,,,,,,,,,right,0.101573944092,,,,,participant13,28,59.7201018899,M,trial,2017_May_28_1702,
,,0.49,"[6.75, 0]",/sounds/legit/right100.wav,,,,,8,8,288,18,,,,,,,,,,,,,,,right,0.168278932571,,,,,participant13,28,59.7201018899,M,trial,2017_May_28_1702,
,,0.49,"[-4.5, 0]",/sounds/legit/left70.wav,,,,,8,9,289,28,,,,,,,,,,,,,,,left,0.0678939819336,,,,,participant13,28,59.7201018899,M,trial,2017_May_28_1702,
,,0.62,"[4.5, 0]",/sounds/legit/right70.wav,,,,,8,10,290,14,,,,,,,,,,,,,,,right,0.303372859955,,,,,participant13,28,59.7201018899,M,trial,2017_May_28_1702,
,,0.49,"[-6.75, 0]",/sounds/legit/left100.wav,,,,,8,11,291,33,,,,,,,,,,,,,,,left,0.151509046555,,,,,participant13,28,59.7201018899,M,trial,2017_May_28_1702,
,,0.62,"[-2.25, 0]",/sounds/legit/left35.wav,,,,,8,12,292,24,,,,,,,,,,,,,,,left,0.0681140422821,,,,,participant13,28,59.7201018899,M,trial,2017_May_28_1702,
,,0.1,"[-2.25, 0]",/sounds/legit/left35.wav,,,,,8,13,293,20,,,,,,,,,,,,,,,left,0.535691022873,,,,,participant13,28,59.7201018899,M,trial,2017_May_28_1702,
,,0.36,"[4.5, 0]",/sounds/legit/right70.wav,,,,,8,14,294,12,,,,,,,,,,,,,,,right,0.301784038544,,,,,participant13,28,59.7201018899,M,trial,2017_May_28_1702,
,,0.23,"[-4.5, 0]",/sounds/legit/left70.wav,,,,,8,15,295,26,,,,,,,,,,,,,,,left,0.302080869675,,,,,participant13,28,59.7201018899,M,trial,2017_May_28_1702,
,,0.36,"[-4.5, 0]",/sounds/legit/left70.wav,,,,,8,16,296,27,,,,,,,,,,,,,,,left,0.168183088303,,,,,participant13,28,59.7201018899,M,trial,2017_May_28_1702,
,,0.62,"[-6.75, 0]",/sounds/legit/left100.wav,,,,,8,17,297,34,,,,,,,,,,,,,,,left,0.235022068024,,,,,participant13,28,59.7201018899,M,trial,2017_May_28_1702,
,,0.23,"[2.25, 0]",/sounds/legit/right35.wav,,,,,8,18,298,6,,,,,,,,,,,,,,,right,0.368542909622,,,,,participant13,28,59.7201018899,M,trial,2017_May_28_1702,
,,0.36,"[6.75, 0]",/sounds/legit/right100.wav,,,,,8,19,299,17,,,,,,,,,,,,,,,right,0.335381984711,,,,,participant13,28,59.7201018899,M,trial,2017_May_28_1702,
,,0.1,"[2.25, 0]",/sounds/legit/right35.wav,,,,,8,20,300,5,,,,,,,,,,,,,,,right,0.0513660907745,,,,,participant13,28,59.7201018899,M,trial,2017_May_28_1702,
,,0.23,"[4.5, 0]",/sounds/legit/right70.wav,,,,,8,21,301,11,,,,,,,,,,,,,,,right,0.335557222366,,,,,participant13,28,59.7201018899,M,trial,2017_May_28_1702,
,,0.36,"[-6.75, 0]",/sounds/legit/left100.wav,,,,,8,22,302,32,,,,,,,,,,,,,,,left,0.00250101089478,,,,,participant13,28,59.7201018899,M,trial,2017_May_28_1702,
,,0.23,"[0, 0]",/sounds/legit/equal.wav,,,,,8,23,303,1,,,,,,,,,,,,,,,left,0.319032907486,,,,,participant13,28,59.7201018899,M,trial,2017_May_28_1702,
,,0.36,"[-2.25, 0]",/sounds/legit/left35.wav,,,,,8,24,304,22,,,,,,,,,,,,,,,left,0.268841981888,,,,,participant13,28,59.7201018899,M,trial,2017_May_28_1702,
,,0.62,"[0, 0]",/sounds/legit/equal.wav,,,,,8,25,305,4,,,,,,,,,,,,,,,left,0.56911110878,,,,,participant13,28,59.7201018899,M,trial,2017_May_28_1702,
,,0.36,"[2.25, 0]",/sounds/legit/right35.wav,,,,,8,26,306,7,,,,,,,,,,,,,,,right,0.218789100647,,,,,participant13,28,59.7201018899,M,trial,2017_May_28_1702,
,,0.1,"[6.75, 0]",/sounds/legit/right100.wav,,,,,8,27,307,15,,,,,,,,,,,,,,,right,0.301595926285,,,,,participant13,28,59.7201018899,M,trial,2017_May_28_1702,
,,0.62,"[6.75, 0]",/sounds/legit/right100.wav,,,,,8,28,308,19,,,,,,,,,,,,,,,right,0.18501996994,,,,,participant13,28,59.7201018899,M,trial,2017_May_28_1702,
,,0.1,"[-6.75, 0]",/sounds/legit/left100.wav,,,,,8,29,309,30,,,,,,,,,,,,,,,left,0.318657875061,,,,,participant13,28,59.7201018899,M,trial,2017_May_28_1702,
,,0.49,"[2.25, 0]",/sounds/legit/right35.wav,,,,,8,30,310,8,,,,,,,,,,,,,,,right,0.201583147049,,,,,participant13,28,59.7201018899,M,trial,2017_May_28_1702,
,,0.49,"[-2.25, 0]",/sounds/legit/left35.wav,,,,,8,31,311,23,,,,,,,,,,,,,,,left,0.385275125504,,,,,participant13,28,59.7201018899,M,trial,2017_May_28_1702,
,,0.23,"[-2.25, 0]",/sounds/legit/left35.wav,,,,,8,32,312,21,,,,,,,,,,,,,,,left,0.0180368423462,,,,,participant13,28,59.7201018899,M,trial,2017_May_28_1702,
,,0.36,"[0, 0]",/sounds/legit/equal.wav,,,,,8,33,313,2,,,,,,,,,,,,,,,left,0.335118055344,,,,,participant13,28,59.7201018899,M,trial,2017_May_28_1702,
,,0.23,"[6.75, 0]",/sounds/legit/right100.wav,,,,,8,34,314,16,,,,,,,,,,,,,,,right,0.235179901123,,,,,participant13,28,59.7201018899,M,trial,2017_May_28_1702,
,,0.49,"[-2.25, 0]",/sounds/legit/left35.wav,,,,,9,0,315,23,,,,,,,,,,,,,,,left,0.218436002731,,,,,participant13,28,59.7201018899,M,trial,2017_May_28_1702,
,,0.1,"[4.5, 0]",/sounds/legit/right70.wav,,,,,9,1,316,10,,,,,,,,,,,,,,,right,0.252024888992,,,,,participant13,28,59.7201018899,M,trial,2017_May_28_1702,
,,0.36,"[-6.75, 0]",/sounds/legit/left100.wav,,,,,9,2,317,32,,,,,,,,,,,,,,,left,0.185367107391,,,,,participant13,28,59.7201018899,M,trial,2017_May_28_1702,
,,0.62,"[6.75, 0]",/sounds/legit/right100.wav,,,,,9,3,318,19,,,,,,,,,,,,,,,right,0.268695831299,,,,,participant13,28,59.7201018899,M,trial,2017_May_28_1702,
,,0.62,"[2.25, 0]",/sounds/legit/right35.wav,,,,,9,4,319,9,,,,,,,,,,,,,,,right,0.186204910278,,,,,participant13,28,59.7201018899,M,trial,2017_May_28_1702,
,,0.23,"[-2.25, 0]",/sounds/legit/left35.wav,,,,,9,5,320,21,,,,,,,,,,,,,,,left,0.285557031631,,,,,participant13,28,59.7201018899,M,trial,2017_May_28_1702,
,,0.1,"[6.75, 0]",/sounds/legit/right100.wav,,,,,9,6,321,15,,,,,,,,,,,,,,,right,0.803018093109,,,,,participant13,28,59.7201018899,M,trial,2017_May_28_1702,
,,0.49,"[-6.75, 0]",/sounds/legit/left100.wav,,,,,9,7,322,33,,,,,,,,,,,,,,,left,0.318600893021,,,,,participant13,28,59.7201018899,M,trial,2017_May_28_1702,
,,0.23,"[0, 0]",/sounds/legit/equal.wav,,,,,9,8,323,1,,,,,,,,,,,,,,,left,0.317968845367,,,,,participant13,28,59.7201018899,M,trial,2017_May_28_1702,
,,0.1,"[-6.75, 0]",/sounds/legit/left100.wav,,,,,9,9,324,30,,,,,,,,,,,,,,,left,0.252028942108,,,,,participant13,28,59.7201018899,M,trial,2017_May_28_1702,
,,0.62,"[4.5, 0]",/sounds/legit/right70.wav,,,,,9,10,325,14,,,,,,,,,,,,,,,right,0.268567085266,,,,,participant13,28,59.7201018899,M,trial,2017_May_28_1702,
,,0.1,"[-2.25, 0]",/sounds/legit/left35.wav,,,,,9,11,326,20,,,,,,,,,,,,,,,left,0.268924951553,,,,,participant13,28,59.7201018899,M,trial,2017_May_28_1702,
,,0.23,"[6.75, 0]",/sounds/legit/right100.wav,,,,,9,12,327,16,,,,,,,,,,,,,,,right,0.30185008049,,,,,participant13,28,59.7201018899,M,trial,2017_May_28_1702,
,,0.62,"[0, 0]",/sounds/legit/equal.wav,,,,,9,13,328,4,,,,,,,,,,,,,,,left,0.319041013718,,,,,participant13,28,59.7201018899,M,trial,2017_May_28_1702,
,,0.62,"[-2.25, 0]",/sounds/legit/left35.wav,,,,,9,14,329,24,,,,,,,,,,,,,,,left,0.251935005188,,,,,participant13,28,59.7201018899,M,trial,2017_May_28_1702,
,,0.1,"[2.25, 0]",/sounds/legit/right35.wav,,,,,9,15,330,5,,,,,,,,,,,,,,,right,0.203001022339,,,,,participant13,28,59.7201018899,M,trial,2017_May_28_1702,
,,0.36,"[-4.5, 0]",/sounds/legit/left70.wav,,,,,9,16,331,27,,,,,,,,,,,,,,,left,0.318451881409,,,,,participant13,28,59.7201018899,M,trial,2017_May_28_1702,
,,0.1,"[0, 0]",/sounds/legit/equal.wav,,,,,9,17,332,0,,,,,,,,,,,,,,,left,0.118305206299,,,,,participant13,28,59.7201018899,M,trial,2017_May_28_1702,
,,0.36,"[4.5, 0]",/sounds/legit/right70.wav,,,,,9,18,333,12,,,,,,,,,,,,,,,right,0.201755046844,,,,,participant13,28,59.7201018899,M,trial,2017_May_28_1702,
,,0.49,"[2.25, 0]",/sounds/legit/right35.wav,,,,,9,19,334,8,,,,,,,,,,,,,,,right,0.185078144073,,,,,participant13,28,59.7201018899,M,trial,2017_May_28_1702,
,,0.23,"[-4.5, 0]",/sounds/legit/left70.wav,,,,,9,20,335,26,,,,,,,,,,,,,,,left,0.318851947784,,,,,participant13,28,59.7201018899,M,trial,2017_May_28_1702,
,,0.23,"[-6.75, 0]",/sounds/legit/left100.wav,,,,,9,21,336,31,,,,,,,,,,,,,,,left,0.285367012024,,,,,participant13,28,59.7201018899,M,trial,2017_May_28_1702,
,,0.36,"[-2.25, 0]",/sounds/legit/left35.wav,,,,,9,22,337,22,,,,,,,,,,,,,,,left,0.151785850525,,,,,participant13,28,59.7201018899,M,trial,2017_May_28_1702,
,,0.36,"[2.25, 0]",/sounds/legit/right35.wav,,,,,9,23,338,7,,,,,,,,,,,,,,,right,0.20202088356,,,,,participant13,28,59.7201018899,M,trial,2017_May_28_1702,
,,0.49,"[-4.5, 0]",/sounds/legit/left70.wav,,,,,9,24,339,28,,,,,,,,,,,,,,,left,0.285156965256,,,,,participant13,28,59.7201018899,M,trial,2017_May_28_1702,
,,0.49,"[4.5, 0]",/sounds/legit/right70.wav,,,,,9,25,340,13,,,,,,,,,,,,,,,right,0.26854801178,,,,,participant13,28,59.7201018899,M,trial,2017_May_28_1702,
,,0.49,"[6.75, 0]",/sounds/legit/right100.wav,,,,,9,26,341,18,,,,,,,,,,,,,,,right,0.218267917633,,,,,participant13,28,59.7201018899,M,trial,2017_May_28_1702,
,,0.62,"[-6.75, 0]",/sounds/legit/left100.wav,,,,,9,27,342,34,,,,,,,,,,,,,,,left,0.535878896713,,,,,participant13,28,59.7201018899,M,trial,2017_May_28_1702,
,,0.62,"[-4.5, 0]",/sounds/legit/left70.wav,,,,,9,28,343,29,,,,,,,,,,,,,,,left,0.268618106842,,,,,participant13,28,59.7201018899,M,trial,2017_May_28_1702,
,,0.23,"[2.25, 0]",/sounds/legit/right35.wav,,,,,9,29,344,6,,,,,,,,,,,,,,,right,0.318624973297,,,,,participant13,28,59.7201018899,M,trial,2017_May_28_1702,
,,0.23,"[4.5, 0]",/sounds/legit/right70.wav,,,,,9,30,345,11,,,,,,,,,,,,,,,right,0.268532037735,,,,,participant13,28,59.7201018899,M,trial,2017_May_28_1702,
,,0.1,"[-4.5, 0]",/sounds/legit/left70.wav,,,,,9,31,346,25,,,,,,,,,,,,,,,left,0.385601043701,,,,,participant13,28,59.7201018899,M,trial,2017_May_28_1702,
,,0.36,"[0, 0]",/sounds/legit/equal.wav,,,,,9,32,347,2,,,,,,,,,,,,,,,left,0.351994991302,,,,,participant13,28,59.7201018899,M,trial,2017_May_28_1702,
,,0.49,"[0, 0]",/sounds/legit/equal.wav,,,,,9,33,348,3,,,,,,,,,,,,,,,left,0.218342065811,,,,,participant13,28,59.7201018899,M,trial,2017_May_28_1702,
,,0.36,"[6.75, 0]",/sounds/legit/right100.wav,,,,,9,34,349,17,,,,,,,,,,,,,,,right,0.151777982712,,,,,participant13,28,59.7201018899,M,trial,2017_May_28_1702,
,,,,,,,,,,,,,,,,,,,,,,,,,,,,,space,12.6955080032,,,participant13,28,59.7201018899,M,trial,2017_May_28_1702,
,,0.49,"[0, 0]",/sounds/legit/equal.wav,,,,,,,,,0,0,0,3,,,,,,,,,,,,,,,left,4.94508910179,participant13,28,59.7201018899,M,trial,2017_May_28_1702,
,,0.1,"[2.25, 0]",/sounds/legit/right35.wav,,,,,,,,,0,1,1,5,,,,,,,,,,,,,,,right,0.719828128815,participant13,28,59.7201018899,M,trial,2017_May_28_1702,
,,0.1,"[2.25, 0]",/sounds/legit/right35.wav,,,,,,,,,0,2,2,5,,,,,,,,,,,,,,,right,0.485502958298,participant13,28,59.7201018899,M,trial,2017_May_28_1702,
,,0.23,"[-2.25, 0]",/sounds/legit/left35.wav,,,,,,,,,0,3,3,21,,,,,,,,,,,,,,,left,0.603984832764,participant13,28,59.7201018899,M,trial,2017_May_28_1702,
,,0.36,"[6.75, 0]",/sounds/legit/right100.wav,,,,,,,,,0,4,4,17,,,,,,,,,,,,,,,right,0.235070943832,participant13,28,59.7201018899,M,trial,2017_May_28_1702,
,,0.36,"[4.5, 0]",/sounds/legit/right70.wav,,,,,,,,,0,5,5,12,,,,,,,,,,,,,,,right,0.28550195694,participant13,28,59.7201018899,M,trial,2017_May_28_1702,
,,0.62,"[-4.5, 0]",/sounds/legit/left70.wav,,,,,,,,,0,6,6,29,,,,,,,,,,,,,,,left,0.285274982452,participant13,28,59.7201018899,M,trial,2017_May_28_1702,
,,0.62,"[6.75, 0]",/sounds/legit/right100.wav,,,,,,,,,0,7,7,19,,,,,,,,,,,,,,,right,0.285099029541,participant13,28,59.7201018899,M,trial,2017_May_28_1702,
,,0.62,"[-2.25, 0]",/sounds/legit/left35.wav,,,,,,,,,0,8,8,24,,,,,,,,,,,,,,,left,0.40252494812,participant13,28,59.7201018899,M,trial,2017_May_28_1702,
,,0.49,"[4.5, 0]",/sounds/legit/right70.wav,,,,,,,,,0,9,9,13,,,,,,,,,,,,,,,right,0.235102176666,participant13,28,59.7201018899,M,trial,2017_May_28_1702,
,,0.23,"[4.5, 0]",/sounds/legit/right70.wav,,,,,,,,,0,10,10,11,,,,,,,,,,,,,,,right,0.25181889534,participant13,28,59.7201018899,M,trial,2017_May_28_1702,
,,0.36,"[0, 0]",/sounds/legit/equal.wav,,,,,,,,,0,11,11,2,,,,,,,,,,,,,,,left,1.52144289017,participant13,28,59.7201018899,M,trial,2017_May_28_1702,
,,0.62,"[2.25, 0]",/sounds/legit/right35.wav,,,,,,,,,0,12,12,9,,,,,,,,,,,,,,,right,0.235321044922,participant13,28,59.7201018899,M,trial,2017_May_28_1702,
,,0.23,"[-2.25, 0]",/sounds/legit/left35.wav,,,,,,,,,0,13,13,21,,,,,,,,,,,,,,,left,0.218321084976,participant13,28,59.7201018899,M,trial,2017_May_28_1702,
,,0.23,"[-2.25, 0]",/sounds/legit/left35.wav,,,,,,,,,0,14,14,21,,,,,,,,,,,,,,,left,0.235121011734,participant13,28,59.7201018899,M,trial,2017_May_28_1702,
,,0.23,"[-2.25, 0]",/sounds/legit/left35.wav,,,,,,,,,0,15,15,21,,,,,,,,,,,,,,,left,0.753024816513,participant13,28,59.7201018899,M,trial,2017_May_28_1702,
,,0.23,"[-4.5, 0]",/sounds/legit/left70.wav,,,,,,,,,0,16,16,26,,,,,,,,,,,,,,,left,0.26763510704,participant13,28,59.7201018899,M,trial,2017_May_28_1702,
,,0.36,"[-6.75, 0]",/sounds/legit/left100.wav,,,,,,,,,0,17,17,32,,,,,,,,,,,,,,,left,0.285263061523,participant13,28,59.7201018899,M,trial,2017_May_28_1702,
,,0.49,"[6.75, 0]",/sounds/legit/right100.wav,,,,,,,,,0,18,18,18,,,,,,,,,,,,,,,right,0.21820807457,participant13,28,59.7201018899,M,trial,2017_May_28_1702,
,,0.23,"[6.75, 0]",/sounds/legit/right100.wav,,,,,,,,,0,19,19,16,,,,,,,,,,,,,,,right,0.20146894455,participant13,28,59.7201018899,M,trial,2017_May_28_1702,
,,0.49,"[2.25, 0]",/sounds/legit/right35.wav,,,,,,,,,0,20,20,8,,,,,,,,,,,,,,,right,0.250790119171,participant13,28,59.7201018899,M,trial,2017_May_28_1702,
,,0.36,"[4.5, 0]",/sounds/legit/right70.wav,,,,,,,,,0,21,21,12,,,,,,,,,,,,,,,right,0.0515129566193,participant13,28,59.7201018899,M,trial,2017_May_28_1702,
,,0.62,"[-2.25, 0]",/sounds/legit/left35.wav,,,,,,,,,0,22,22,24,,,,,,,,,,,,,,,left,0.752999067307,participant13,28,59.7201018899,M,trial,2017_May_28_1702,
,,0.23,"[0, 0]",/sounds/legit/equal.wav,,,,,,,,,0,23,23,1,,,,,,,,,,,,,,,right,0.23566699028,participant13,28,59.7201018899,M,trial,2017_May_28_1702,
,,0.49,"[0, 0]",/sounds/legit/equal.wav,,,,,,,,,0,24,24,3,,,,,,,,,,,,,,,left,0.619338035583,participant13,28,59.7201018899,M,trial,2017_May_28_1702,
,,0.1,"[-6.75, 0]",/sounds/legit/left100.wav,,,,,,,,,0,25,25,30,,,,,,,,,,,,,,,left,0.301949977875,participant13,28,59.7201018899,M,trial,2017_May_28_1702,
,,0.1,"[0, 0]",/sounds/legit/equal.wav,,,,,,,,,0,26,26,0,,,,,,,,,,,,,,,right,0.0846691131592,participant13,28,59.7201018899,M,trial,2017_May_28_1702,
,,0.49,"[6.75, 0]",/sounds/legit/right100.wav,,,,,,,,,0,27,27,18,,,,,,,,,,,,,,,right,0.135163068771,participant13,28,59.7201018899,M,trial,2017_May_28_1702,
,,0.1,"[4.5, 0]",/sounds/legit/right70.wav,,,,,,,,,0,28,28,10,,,,,,,,,,,,,,,right,0.068204164505,participant13,28,59.7201018899,M,trial,2017_May_28_1702,
,,0.49,"[6.75, 0]",/sounds/legit/right100.wav,,,,,,,,,0,29,29,18,,,,,,,,,,,,,,,right,0.118145942688,participant13,28,59.7201018899,M,trial,2017_May_28_1702,
,,0.23,"[-6.75, 0]",/sounds/legit/left100.wav,,,,,,,,,0,30,30,31,,,,,,,,,,,,,,,left,0.184132099152,participant13,28,59.7201018899,M,trial,2017_May_28_1702,
,,0.1,"[2.25, 0]",/sounds/legit/right35.wav,,,,,,,,,0,31,31,5,,,,,,,,,,,,,,,right,0.0680651664734,participant13,28,59.7201018899,M,trial,2017_May_28_1702,
,,0.36,"[-2.25, 0]",/sounds/legit/left35.wav,,,,,,,,,0,32,32,22,,,,,,,,,,,,,,,left,0.201476812363,participant13,28,59.7201018899,M,trial,2017_May_28_1702,
,,0.36,"[2.25, 0]",/sounds/legit/right35.wav,,,,,,,,,0,33,33,7,,,,,,,,,,,,,,,right,0.0347330570221,participant13,28,59.7201018899,M,trial,2017_May_28_1702,
,,0.23,"[4.5, 0]",/sounds/legit/right70.wav,,,,,,,,,0,34,34,11,,,,,,,,,,,,,,,right,0.067165851593,participant13,28,59.7201018899,M,trial,2017_May_28_1702,
,,0.23,"[-6.75, 0]",/sounds/legit/left100.wav,,,,,,,,,1,0,35,31,,,,,,,,,,,,,,,left,0.101440906525,participant13,28,59.7201018899,M,trial,2017_May_28_1702,
,,0.62,"[4.5, 0]",/sounds/legit/right70.wav,,,,,,,,,1,1,36,14,,,,,,,,,,,,,,,right,0.836313009262,participant13,28,59.7201018899,M,trial,2017_May_28_1702,
,,0.49,"[0, 0]",/sounds/legit/equal.wav,,,,,,,,,1,2,37,3,,,,,,,,,,,,,,,left,0.218585014343,participant13,28,59.7201018899,M,trial,2017_May_28_1702,
,,0.23,"[-2.25, 0]",/sounds/legit/left35.wav,,,,,,,,,1,3,38,21,,,,,,,,,,,,,,,left,0.10146188736,participant13,28,59.7201018899,M,trial,2017_May_28_1702,
,,0.36,"[6.75, 0]",/sounds/legit/right100.wav,,,,,,,,,1,4,39,17,,,,,,,,,,,,,,,right,0.168555021286,participant13,28,59.7201018899,M,trial,2017_May_28_1702,
,,0.36,"[-4.5, 0]",/sounds/legit/left70.wav,,,,,,,,,1,5,40,27,,,,,,,,,,,,,,,left,0.0513648986816,participant13,28,59.7201018899,M,trial,2017_May_28_1702,
,,0.36,"[0, 0]",/sounds/legit/equal.wav,,,,,,,,,1,6,41,2,,,,,,,,,,,,,,,left,0.151723861694,participant13,28,59.7201018899,M,trial,2017_May_28_1702,
,,0.62,"[-6.75, 0]",/sounds/legit/left100.wav,,,,,,,,,1,7,42,34,,,,,,,,,,,,,,,left,0.18500494957,participant13,28,59.7201018899,M,trial,2017_May_28_1702,
,,0.23,"[-6.75, 0]",/sounds/legit/left100.wav,,,,,,,,,1,8,43,31,,,,,,,,,,,,,,,left,0.033783197403,participant13,28,59.7201018899,M,trial,2017_May_28_1702,
,,0.62,"[4.5, 0]",/sounds/legit/right70.wav,,,,,,,,,1,9,44,14,,,,,,,,,,,,,,,right,0.133989095688,participant13,28,59.7201018899,M,trial,2017_May_28_1702,
,,0.49,"[-4.5, 0]",/sounds/legit/left70.wav,,,,,,,,,1,10,45,28,,,,,,,,,,,,,,,left,0.101890087128,participant13,28,59.7201018899,M,trial,2017_May_28_1702,
,,0.1,"[0, 0]",/sounds/legit/equal.wav,,,,,,,,,1,11,46,0,,,,,,,,,,,,,,,right,0.118127822876,participant13,28,59.7201018899,M,trial,2017_May_28_1702,
,,0.62,"[2.25, 0]",/sounds/legit/right35.wav,,,,,,,,,1,12,47,9,,,,,,,,,,,,,,,right,0.101582050323,participant13,28,59.7201018899,M,trial,2017_May_28_1702,
,,0.1,"[0, 0]",/sounds/legit/equal.wav,,,,,,,,,1,13,48,0,,,,,,,,,,,,,,,left,0.251987934113,participant13,28,59.7201018899,M,trial,2017_May_28_1702,
,,0.36,"[6.75, 0]",/sounds/legit/right100.wav,,,,,,,,,1,14,49,17,,,,,,,,,,,,,,,right,0.135142087936,participant13,28,59.7201018899,M,trial,2017_May_28_1702,
,,0.23,"[-2.25, 0]",/sounds/legit/left35.wav,,,,,,,,,1,15,50,21,,,,,,,,,,,,,,,left,0.38533115387,participant13,28,59.7201018899,M,trial,2017_May_28_1702,
,,0.62,"[-2.25, 0]",/sounds/legit/left35.wav,,,,,,,,,1,16,51,24,,,,,,,,,,,,,,,left,1.38772201538,participant13,28,59.7201018899,M,trial,2017_May_28_1702,
,,0.23,"[-4.5, 0]",/sounds/legit/left70.wav,,,,,,,,,1,17,52,26,,,,,,,,,,,,,,,left,0.168330907822,participant13,28,59.7201018899,M,trial,2017_May_28_1702,
,,0.1,"[2.25, 0]",/sounds/legit/right35.wav,,,,,,,,,1,18,53,5,,,,,,,,,,,,,,,right,0.0850210189819,participant13,28,59.7201018899,M,trial,2017_May_28_1702,
,,0.1,"[-6.75, 0]",/sounds/legit/left100.wav,,,,,,,,,1,19,54,30,,,,,,,,,,,,,,,left,0.0345659255981,participant13,28,59.7201018899,M,trial,2017_May_28_1702,
,,0.49,"[6.75, 0]",/sounds/legit/right100.wav,,,,,,,,,1,20,55,18,,,,,,,,,,,,,,,right,0.0349009037018,participant13,28,59.7201018899,M,trial,2017_May_28_1702,
,,0.49,"[2.25, 0]",/sounds/legit/right35.wav,,,,,,,,,1,21,56,8,,,,,,,,,,,,,,,right,0.0848381519318,participant13,28,59.7201018899,M,trial,2017_May_28_1702,
,,0.36,"[-2.25, 0]",/sounds/legit/left35.wav,,,,,,,,,1,22,57,22,,,,,,,,,,,,,,,left,0.2181661129,participant13,28,59.7201018899,M,trial,2017_May_28_1702,
,,0.49,"[6.75, 0]",/sounds/legit/right100.wav,,,,,,,,,1,23,58,18,,,,,,,,,,,,,,,right,0.0849580764771,participant13,28,59.7201018899,M,trial,2017_May_28_1702,
,,0.23,"[0, 0]",/sounds/legit/equal.wav,,,,,,,,,1,24,59,1,,,,,,,,,,,,,,,right,0.736074924469,participant13,28,59.7201018899,M,trial,2017_May_28_1702,
,,0.1,"[-6.75, 0]",/sounds/legit/left100.wav,,,,,,,,,1,25,60,30,,,,,,,,,,,,,,,left,0.0504310131073,participant13,28,59.7201018899,M,trial,2017_May_28_1702,
,,0.62,"[6.75, 0]",/sounds/legit/right100.wav,,,,,,,,,1,26,61,19,,,,,,,,,,,,,,,right,0.0851211547852,participant13,28,59.7201018899,M,trial,2017_May_28_1702,
,,0.49,"[-4.5, 0]",/sounds/legit/left70.wav,,,,,,,,,1,27,62,28,,,,,,,,,,,,,,,left,0.184887886047,participant13,28,59.7201018899,M,trial,2017_May_28_1702,
,,0.1,"[6.75, 0]",/sounds/legit/right100.wav,,,,,,,,,1,28,63,15,,,,,,,,,,,,,,,right,0.0680251121521,participant13,28,59.7201018899,M,trial,2017_May_28_1702,
,,0.49,"[2.25, 0]",/sounds/legit/right35.wav,,,,,,,,,1,29,64,8,,,,,,,,,,,,,,,right,0.0680949687958,participant13,28,59.7201018899,M,trial,2017_May_28_1702,
,,0.49,"[-2.25, 0]",/sounds/legit/left35.wav,,,,,,,,,1,30,65,23,,,,,,,,,,,,,,,left,0.552520036697,participant13,28,59.7201018899,M,trial,2017_May_28_1702,
,,0.36,"[2.25, 0]",/sounds/legit/right35.wav,,,,,,,,,1,31,66,7,,,,,,,,,,,,,,,right,0.719705104828,participant13,28,59.7201018899,M,trial,2017_May_28_1702,
,,0.23,"[-4.5, 0]",/sounds/legit/left70.wav,,,,,,,,,1,32,67,26,,,,,,,,,,,,,,,left,0.185211896896,participant13,28,59.7201018899,M,trial,2017_May_28_1702,
,,0.1,"[0, 0]",/sounds/legit/equal.wav,,,,,,,,,1,33,68,0,,,,,,,,,,,,,,,left,0.80268907547,participant13,28,59.7201018899,M,trial,2017_May_28_1702,
,,0.1,"[6.75, 0]",/sounds/legit/right100.wav,,,,,,,,,1,34,69,15,,,,,,,,,,,,,,,right,0.0345349311829,participant13,28,59.7201018899,M,trial,2017_May_28_1702,
,,0.1,"[-4.5, 0]",/sounds/legit/left70.wav,,,,,,,,,2,0,70,25,,,,,,,,,,,,,,,left,0.0505499839783,participant13,28,59.7201018899,M,trial,2017_May_28_1702,
,,0.62,"[6.75, 0]",/sounds/legit/right100.wav,,,,,,,,,2,1,71,19,,,,,,,,,,,,,,,right,0.134120941162,participant13,28,59.7201018899,M,trial,2017_May_28_1702,
,,0.62,"[-4.5, 0]",/sounds/legit/left70.wav,,,,,,,,,2,2,72,29,,,,,,,,,,,,,,,left,0.0515260696411,participant13,28,59.7201018899,M,trial,2017_May_28_1702,
,,0.36,"[4.5, 0]",/sounds/legit/right70.wav,,,,,,,,,2,3,73,12,,,,,,,,,,,,,,,right,0.151498794556,participant13,28,59.7201018899,M,trial,2017_May_28_1702,
,,0.23,"[0, 0]",/sounds/legit/equal.wav,,,,,,,,,2,4,74,1,,,,,,,,,,,,,,,right,0.0680320262909,participant13,28,59.7201018899,M,trial,2017_May_28_1702,
,,0.23,"[-4.5, 0]",/sounds/legit/left70.wav,,,,,,,,,2,5,75,26,,,,,,,,,,,,,,,left,0.0679330825806,participant13,28,59.7201018899,M,trial,2017_May_28_1702,
,,0.49,"[2.25, 0]",/sounds/legit/right35.wav,,,,,,,,,2,6,76,8,,,,,,,,,,,,,,,right,0.134917974472,participant13,28,59.7201018899,M,trial,2017_May_28_1702,
,,0.36,"[-4.5, 0]",/sounds/legit/left70.wav,,,,,,,,,2,7,77,27,,,,,,,,,,,,,,,left,0.0181121826172,participant13,28,59.7201018899,M,trial,2017_May_28_1702,
,,0.1,"[2.25, 0]",/sounds/legit/right35.wav,,,,,,,,,2,8,78,5,,,,,,,,,,,,,,,right,0.636034965515,participant13,28,59.7201018899,M,trial,2017_May_28_1702,
,,0.1,"[4.5, 0]",/sounds/legit/right70.wav,,,,,,,,,2,9,79,10,,,,,,,,,,,,,,,right,0.017814874649,participant13,28,59.7201018899,M,trial,2017_May_28_1702,
,,0.36,"[-6.75, 0]",/sounds/legit/left100.wav,,,,,,,,,2,10,80,32,,,,,,,,,,,,,,,left,0.0182330608368,participant13,28,59.7201018899,M,trial,2017_May_28_1702,
,,0.23,"[-2.25, 0]",/sounds/legit/left35.wav,,,,,,,,,2,11,81,21,,,,,,,,,,,,,,,left,0.151699066162,participant13,28,59.7201018899,M,trial,2017_May_28_1702,
,,0.49,"[0, 0]",/sounds/legit/equal.wav,,,,,,,,,2,12,82,3,,,,,,,,,,,,,,,right,0.101488113403,participant13,28,59.7201018899,M,trial,2017_May_28_1702,
,,0.36,"[0, 0]",/sounds/legit/equal.wav,,,,,,,,,2,13,83,2,,,,,,,,,,,,,,,right,0.235346078873,participant13,28,59.7201018899,M,trial,2017_May_28_1702,
,,0.62,"[4.5, 0]",/sounds/legit/right70.wav,,,,,,,,,2,14,84,14,,,,,,,,,,,,,,,right,0.0681781768799,participant13,28,59.7201018899,M,trial,2017_May_28_1702,
,,0.62,"[-4.5, 0]",/sounds/legit/left70.wav,,,,,,,,,2,15,85,29,,,,,,,,,,,,,,,left,0.134974956512,participant13,28,59.7201018899,M,trial,2017_May_28_1702,
,,0.36,"[6.75, 0]",/sounds/legit/right100.wav,,,,,,,,,2,16,86,17,,,,,,,,,,,,,,,right,0.134971857071,participant13,28,59.7201018899,M,trial,2017_May_28_1702,
,,0.62,"[0, 0]",/sounds/legit/equal.wav,,,,,,,,,2,17,87,4,,,,,,,,,,,,,,,left,0.268590927124,participant13,28,59.7201018899,M,trial,2017_May_28_1702,
,,0.36,"[-6.75, 0]",/sounds/legit/left100.wav,,,,,,,,,2,18,88,32,,,,,,,,,,,,,,,left,0.0515930652618,participant13,28,59.7201018899,M,trial,2017_May_28_1702,
,,0.62,"[6.75, 0]",/sounds/legit/right100.wav,,,,,,,,,2,19,89,19,,,,,,,,,,,,,,,right,0.135015964508,participant13,28,59.7201018899,M,trial,2017_May_28_1702,
,,0.49,"[-6.75, 0]",/sounds/legit/left100.wav,,,,,,,,,2,20,90,33,,,,,,,,,,,,,,,left,0.0519471168518,participant13,28,59.7201018899,M,trial,2017_May_28_1702,
,,0.1,"[-2.25, 0]",/sounds/legit/left35.wav,,,,,,,,,2,21,91,20,,,,,,,,,,,,,,,left,0.0515561103821,participant13,28,59.7201018899,M,trial,2017_May_28_1702,
,,0.49,"[-4.5, 0]",/sounds/legit/left70.wav,,,,,,,,,2,22,92,28,,,,,,,,,,,,,,,left,0.0348219871521,participant13,28,59.7201018899,M,trial,2017_May_28_1702,
,,0.1,"[2.25, 0]",/sounds/legit/right35.wav,,,,,,,,,2,23,93,5,,,,,,,,,,,,,,,right,0.017865896225,participant13,28,59.7201018899,M,trial,2017_May_28_1702,
,,0.1,"[4.5, 0]",/sounds/legit/right70.wav,,,,,,,,,2,24,94,10,,,,,,,,,,,,,,,right,0.118185997009,participant13,28,59.7201018899,M,trial,2017_May_28_1702,
,,0.23,"[0, 0]",/sounds/legit/equal.wav,,,,,,,,,2,25,95,1,,,,,,,,,,,,,,,left,0.419052124023,participant13,28,59.7201018899,M,trial,2017_May_28_1702,
,,0.23,"[4.5, 0]",/sounds/legit/right70.wav,,,,,,,,,2,26,96,11,,,,,,,,,,,,,,,right,0.0516347885132,participant13,28,59.7201018899,M,trial,2017_May_28_1702,
,,0.62,"[6.75, 0]",/sounds/legit/right100.wav,,,,,,,,,2,27,97,19,,,,,,,,,,,,,,,right,0.0347440242767,participant13,28,59.7201018899,M,trial,2017_May_28_1702,
,,0.62,"[0, 0]",/sounds/legit/equal.wav,,,,,,,,,2,28,98,4,,,,,,,,,,,,,,,left,0.318804979324,participant13,28,59.7201018899,M,trial,2017_May_28_1702,
,,0.62,"[4.5, 0]",/sounds/legit/right70.wav,,,,,,,,,2,29,99,14,,,,,,,,,,,,,,,right,0.0182120800018,participant13,28,59.7201018899,M,trial,2017_May_28_1702,
,,0.49,"[2.25, 0]",/sounds/legit/right35.wav,,,,,,,,,2,30,100,8,,,,,,,,,,,,,,,right,0.218800067902,participant13,28,59.7201018899,M,trial,2017_May_28_1702,
,,0.49,"[-2.25, 0]",/sounds/legit/left35.wav,,,,,,,,,2,31,101,23,,,,,,,,,,,,,,,left,0.151614904404,participant13,28,59.7201018899,M,trial,2017_May_28_1702,
,,0.62,"[-4.5, 0]",/sounds/legit/left70.wav,,,,,,,,,2,32,102,29,,,,,,,,,,,,,,,left,0.0515260696411,participant13,28,59.7201018899,M,trial,2017_May_28_1702,
,,0.49,"[0, 0]",/sounds/legit/equal.wav,,,,,,,,,2,33,103,3,,,,,,,,,,,,,,,right,0.435320138931,participant13,28,59.7201018899,M,trial,2017_May_28_1702,
,,0.62,"[0, 0]",/sounds/legit/equal.wav,,,,,,,,,2,34,104,4,,,,,,,,,,,,,,,right,0.803045034409,participant13,28,59.7201018899,M,trial,2017_May_28_1702,
,,0.36,"[-4.5, 0]",/sounds/legit/left70.wav,,,,,,,,,3,0,105,27,,,,,,,,,,,,,,,left,0.118287801743,participant13,28,59.7201018899,M,trial,2017_May_28_1702,
,,0.1,"[4.5, 0]",/sounds/legit/right70.wav,,,,,,,,,3,1,106,10,,,,,,,,,,,,,,,right,0.00141596794128,participant13,28,59.7201018899,M,trial,2017_May_28_1702,
,,0.49,"[4.5, 0]",/sounds/legit/right70.wav,,,,,,,,,3,2,107,13,,,,,,,,,,,,,,,right,0.56921505928,participant13,28,59.7201018899,M,trial,2017_May_28_1702,
,,0.36,"[-6.75, 0]",/sounds/legit/left100.wav,,,,,,,,,3,3,108,32,,,,,,,,,,,,,,,left,0.00131988525391,participant13,28,59.7201018899,M,trial,2017_May_28_1702,
,,0.49,"[-2.25, 0]",/sounds/legit/left35.wav,,,,,,,,,3,4,109,23,,,,,,,,,,,,,,,left,0.0680868625641,participant13,28,59.7201018899,M,trial,2017_May_28_1702,
,,0.23,"[2.25, 0]",/sounds/legit/right35.wav,,,,,,,,,3,5,110,6,,,,,,,,,,,,,,,right,0.0180549621582,participant13,28,59.7201018899,M,trial,2017_May_28_1702,
,,0.36,"[-4.5, 0]",/sounds/legit/left70.wav,,,,,,,,,3,6,111,27,,,,,,,,,,,,,,,left,0.185040950775,participant13,28,59.7201018899,M,trial,2017_May_28_1702,
,,0.23,"[2.25, 0]",/sounds/legit/right35.wav,,,,,,,,,3,7,112,6,,,,,,,,,,,,,,,right,0.0346188545227,participant13,28,59.7201018899,M,trial,2017_May_28_1702,
,,0.49,"[-2.25, 0]",/sounds/legit/left35.wav,,,,,,,,,3,8,113,23,,,,,,,,,,,,,,,left,0.151386022568,participant13,28,59.7201018899,M,trial,2017_May_28_1702,
,,0.1,"[2.25, 0]",/sounds/legit/right35.wav,,,,,,,,,3,9,114,5,,,,,,,,,,,,,,,right,0.185048103333,participant13,28,59.7201018899,M,trial,2017_May_28_1702,
,,0.62,"[-2.25, 0]",/sounds/legit/left35.wav,,,,,,,,,3,10,115,24,,,,,,,,,,,,,,,left,0.0515761375427,participant13,28,59.7201018899,M,trial,2017_May_28_1702,
,,0.23,"[2.25, 0]",/sounds/legit/right35.wav,,,,,,,,,3,11,116,6,,,,,,,,,,,,,,,right,0.118397951126,participant13,28,59.7201018899,M,trial,2017_May_28_1702,
,,0.23,"[-2.25, 0]",/sounds/legit/left35.wav,,,,,,,,,3,12,117,21,,,,,,,,,,,,,,,left,0.134996891022,participant13,28,59.7201018899,M,trial,2017_May_28_1702,
,,0.23,"[-4.5, 0]",/sounds/legit/left70.wav,,,,,,,,,3,13,118,26,,,,,,,,,,,,,,,left,0.852921009064,participant13,28,59.7201018899,M,trial,2017_May_28_1702,
,,0.49,"[4.5, 0]",/sounds/legit/right70.wav,,,,,,,,,3,14,119,13,,,,,,,,,,,,,,,right,0.0181970596313,participant13,28,59.7201018899,M,trial,2017_May_28_1702,
,,0.23,"[6.75, 0]",/sounds/legit/right100.wav,,,,,,,,,3,15,120,16,,,,,,,,,,,,,,,right,0.134948015213,participant13,28,59.7201018899,M,trial,2017_May_28_1702,
,,0.62,"[-2.25, 0]",/sounds/legit/left35.wav,,,,,,,,,3,16,121,24,,,,,,,,,,,,,,,left,1.57142400742,participant13,28,59.7201018899,M,trial,2017_May_28_1702,
,,0.49,"[6.75, 0]",/sounds/legit/right100.wav,,,,,,,,,3,17,122,18,,,,,,,,,,,,,,,right,0.0345871448517,participant13,28,59.7201018899,M,trial,2017_May_28_1702,
,,0.49,"[6.75, 0]",/sounds/legit/right100.wav,,,,,,,,,3,18,123,18,,,,,,,,,,,,,,,right,0.251951932907,participant13,28,59.7201018899,M,trial,2017_May_28_1702,
,,0.36,"[6.75, 0]",/sounds/legit/right100.wav,,,,,,,,,3,19,124,17,,,,,,,,,,,,,,,right,0.268501996994,participant13,28,59.7201018899,M,trial,2017_May_28_1702,
,,0.62,"[-2.25, 0]",/sounds/legit/left35.wav,,,,,,,,,3,20,125,24,,,,,,,,,,,,,,,left,0.886808156967,participant13,28,59.7201018899,M,trial,2017_May_28_1702,
,,0.1,"[-2.25, 0]",/sounds/legit/left35.wav,,,,,,,,,3,21,126,20,,,,,,,,,,,,,,,left,0.118655920029,participant13,28,59.7201018899,M,trial,2017_May_28_1702,
,,0.1,"[4.5, 0]",/sounds/legit/right70.wav,,,,,,,,,3,22,127,10,,,,,,,,,,,,,,,right,0.151659011841,participant13,28,59.7201018899,M,trial,2017_May_28_1702,
,,0.36,"[2.25, 0]",/sounds/legit/right35.wav,,,,,,,,,3,23,128,7,,,,,,,,,,,,,,,right,0.201658010483,participant13,28,59.7201018899,M,trial,2017_May_28_1702,
,,0.62,"[2.25, 0]",/sounds/legit/right35.wav,,,,,,,,,3,24,129,9,,,,,,,,,,,,,,,right,0.134715080261,participant13,28,59.7201018899,M,trial,2017_May_28_1702,
,,0.36,"[0, 0]",/sounds/legit/equal.wav,,,,,,,,,3,25,130,2,,,,,,,,,,,,,,,right,0.169551849365,participant13,28,59.7201018899,M,trial,2017_May_28_1702,
,,0.23,"[2.25, 0]",/sounds/legit/right35.wav,,,,,,,,,3,26,131,6,,,,,,,,,,,,,,,right,0.135031938553,participant13,28,59.7201018899,M,trial,2017_May_28_1702,
,,0.62,"[2.25, 0]",/sounds/legit/right35.wav,,,,,,,,,3,27,132,9,,,,,,,,,,,,,,,right,0.135061979294,participant13,28,59.7201018899,M,trial,2017_May_28_1702,
,,0.49,"[-6.75, 0]",/sounds/legit/left100.wav,,,,,,,,,3,28,133,33,,,,,,,,,,,,,,,left,0.251765012741,participant13,28,59.7201018899,M,trial,2017_May_28_1702,
,,0.23,"[-4.5, 0]",/sounds/legit/left70.wav,,,,,,,,,3,29,134,26,,,,,,,,,,,,,,,left,0.168475866318,participant13,28,59.7201018899,M,trial,2017_May_28_1702,
,,0.49,"[-2.25, 0]",/sounds/legit/left35.wav,,,,,,,,,3,30,135,23,,,,,,,,,,,,,,,left,0.151475906372,participant13,28,59.7201018899,M,trial,2017_May_28_1702,
,,0.1,"[2.25, 0]",/sounds/legit/right35.wav,,,,,,,,,3,31,136,5,,,,,,,,,,,,,,,right,0.134853839874,participant13,28,59.7201018899,M,trial,2017_May_28_1702,
,,0.62,"[4.5, 0]",/sounds/legit/right70.wav,,,,,,,,,3,32,137,14,,,,,,,,,,,,,,,right,0.334477901459,participant13,28,59.7201018899,M,trial,2017_May_28_1702,
,,0.1,"[-4.5, 0]",/sounds/legit/left70.wav,,,,,,,,,3,33,138,25,,,,,,,,,,,,,,,left,0.302131175995,participant13,28,59.7201018899,M,trial,2017_May_28_1702,
,,0.49,"[-4.5, 0]",/sounds/legit/left70.wav,,,,,,,,,3,34,139,28,,,,,,,,,,,,,,,left,0.151733875275,participant13,28,59.7201018899,M,trial,2017_May_28_1702,
,,0.36,"[0, 0]",/sounds/legit/equal.wav,,,,,,,,,4,0,140,2,,,,,,,,,,,,,,,right,0.585936069489,participant13,28,59.7201018899,M,trial,2017_May_28_1702,
,,0.23,"[0, 0]",/sounds/legit/equal.wav,,,,,,,,,4,1,141,1,,,,,,,,,,,,,,,right,0.101526975632,participant13,28,59.7201018899,M,trial,2017_May_28_1702,
,,0.1,"[-4.5, 0]",/sounds/legit/left70.wav,,,,,,,,,4,2,142,25,,,,,,,,,,,,,,,left,0.636075973511,participant13,28,59.7201018899,M,trial,2017_May_28_1702,
,,0.49,"[6.75, 0]",/sounds/legit/right100.wav,,,,,,,,,4,3,143,18,,,,,,,,,,,,,,,right,0.0342209339142,participant13,28,59.7201018899,M,trial,2017_May_28_1702,
,,0.62,"[-6.75, 0]",/sounds/legit/left100.wav,,,,,,,,,4,4,144,34,,,,,,,,,,,,,,,left,0.134874820709,participant13,28,59.7201018899,M,trial,2017_May_28_1702,
,,0.23,"[-4.5, 0]",/sounds/legit/left70.wav,,,,,,,,,4,5,145,26,,,,,,,,,,,,,,,left,0.00126194953918,participant13,28,59.7201018899,M,trial,2017_May_28_1702,
,,0.1,"[-2.25, 0]",/sounds/legit/left35.wav,,,,,,,,,4,6,146,20,,,,,,,,,,,,,,,left,0.00130915641785,participant13,28,59.7201018899,M,trial,2017_May_28_1702,
,,0.36,"[-2.25, 0]",/sounds/legit/left35.wav,,,,,,,,,4,7,147,22,,,,,,,,,,,,,,,left,0.168453931808,participant13,28,59.7201018899,M,trial,2017_May_28_1702,
,,0.36,"[4.5, 0]",/sounds/legit/right70.wav,,,,,,,,,4,8,148,12,,,,,,,,,,,,,,,right,0.268639802933,participant13,28,59.7201018899,M,trial,2017_May_28_1702,
,,0.62,"[6.75, 0]",/sounds/legit/right100.wav,,,,,,,,,4,9,149,19,,,,,,,,,,,,,,,right,0.1849629879,participant13,28,59.7201018899,M,trial,2017_May_28_1702,
,,0.62,"[-4.5, 0]",/sounds/legit/left70.wav,,,,,,,,,4,10,150,29,,,,,,,,,,,,,,,left,0.201592922211,participant13,28,59.7201018899,M,trial,2017_May_28_1702,
,,0.49,"[4.5, 0]",/sounds/legit/right70.wav,,,,,,,,,4,11,151,13,,,,,,,,,,,,,,,right,0.201511144638,participant13,28,59.7201018899,M,trial,2017_May_28_1702,
,,0.1,"[-2.25, 0]",/sounds/legit/left35.wav,,,,,,,,,4,12,152,20,,,,,,,,,,,,,,,left,0.100714921951,participant13,28,59.7201018899,M,trial,2017_May_28_1702,
,,0.62,"[4.5, 0]",/sounds/legit/right70.wav,,,,,,,,,4,13,153,14,,,,,,,,,,,,,,,right,0.0177640914917,participant13,28,59.7201018899,M,trial,2017_May_28_1702,
,,0.62,"[-6.75, 0]",/sounds/legit/left100.wav,,,,,,,,,4,14,154,34,,,,,,,,,,,,,,,left,0.134778022766,participant13,28,59.7201018899,M,trial,2017_May_28_1702,
,,0.23,"[-6.75, 0]",/sounds/legit/left100.wav,,,,,,,,,4,15,155,31,,,,,,,,,,,,,,,left,0.151804924011,participant13,28,59.7201018899,M,trial,2017_May_28_1702,
,,0.36,"[2.25, 0]",/sounds/legit/right35.wav,,,,,,,,,4,16,156,7,,,,,,,,,,,,,,,right,0.168267011642,participant13,28,59.7201018899,M,trial,2017_May_28_1702,
,,0.1,"[6.75, 0]",/sounds/legit/right100.wav,,,,,,,,,4,17,157,15,,,,,,,,,,,,,,,right,0.201706886292,participant13,28,59.7201018899,M,trial,2017_May_28_1702,
,,0.1,"[-2.25, 0]",/sounds/legit/left35.wav,,,,,,,,,4,18,158,20,,,,,,,,,,,,,,,left,0.218501091003,participant13,28,59.7201018899,M,trial,2017_May_28_1702,
,,0.36,"[0, 0]",/sounds/legit/equal.wav,,,,,,,,,4,19,159,2,,,,,,,,,,,,,,,right,0.485013008118,participant13,28,59.7201018899,M,trial,2017_May_28_1702,
,,0.1,"[-6.75, 0]",/sounds/legit/left100.wav,,,,,,,,,4,20,160,30,,,,,,,,,,,,,,,left,0.218765974045,participant13,28,59.7201018899,M,trial,2017_May_28_1702,
,,0.62,"[-2.25, 0]",/sounds/legit/left35.wav,,,,,,,,,4,21,161,24,,,,,,,,,,,,,,,left,1.17090392113,participant13,28,59.7201018899,M,trial,2017_May_28_1702,
,,0.23,"[2.25, 0]",/sounds/legit/right35.wav,,,,,,,,,4,22,162,6,,,,,,,,,,,,,,,right,0.769669055939,participant13,28,59.7201018899,M,trial,2017_May_28_1702,
,,0.36,"[0, 0]",/sounds/legit/equal.wav,,,,,,,,,4,23,163,2,,,,,,,,,,,,,,,right,0.101625204086,participant13,28,59.7201018899,M,trial,2017_May_28_1702,
,,0.36,"[6.75, 0]",/sounds/legit/right100.wav,,,,,,,,,4,24,164,17,,,,,,,,,,,,,,,right,0.401223182678,participant13,28,59.7201018899,M,trial,2017_May_28_1702,
,,0.1,"[0, 0]",/sounds/legit/equal.wav,,,,,,,,,4,25,165,0,,,,,,,,,,,,,,,right,0.635900020599,participant13,28,59.7201018899,M,trial,2017_May_28_1702,
,,0.23,"[-6.75, 0]",/sounds/legit/left100.wav,,,,,,,,,4,26,166,31,,,,,,,,,,,,,,,left,0.302129030228,participant13,28,59.7201018899,M,trial,2017_May_28_1702,
,,0.23,"[6.75, 0]",/sounds/legit/right100.wav,,,,,,,,,4,27,167,16,,,,,,,,,,,,,,,right,0.0850479602814,participant13,28,59.7201018899,M,trial,2017_May_28_1702,
,,0.23,"[6.75, 0]",/sounds/legit/right100.wav,,,,,,,,,4,28,168,16,,,,,,,,,,,,,,,right,0.302119970322,participant13,28,59.7201018899,M,trial,2017_May_28_1702,
,,0.49,"[4.5, 0]",/sounds/legit/right70.wav,,,,,,,,,4,29,169,13,,,,,,,,,,,,,,,right,0.385334968567,participant13,28,59.7201018899,M,trial,2017_May_28_1702,
,,0.1,"[-6.75, 0]",/sounds/legit/left100.wav,,,,,,,,,4,30,170,30,,,,,,,,,,,,,,,left,0.068078994751,participant13,28,59.7201018899,M,trial,2017_May_28_1702,
,,0.49,"[-2.25, 0]",/sounds/legit/left35.wav,,,,,,,,,4,31,171,23,,,,,,,,,,,,,,,left,0.167500019073,participant13,28,59.7201018899,M,trial,2017_May_28_1702,
,,0.1,"[-2.25, 0]",/sounds/legit/left35.wav,,,,,,,,,4,32,172,20,,,,,,,,,,,,,,,left,0.101395845413,participant13,28,59.7201018899,M,trial,2017_May_28_1702,
,,0.62,"[-6.75, 0]",/sounds/legit/left100.wav,,,,,,,,,4,33,173,34,,,,,,,,,,,,,,,left,0.101727962494,participant13,28,59.7201018899,M,trial,2017_May_28_1702,
,,0.62,"[0, 0]",/sounds/legit/equal.wav,,,,,,,,,4,34,174,4,,,,,,,,,,,,,,,right,0.535929203033,participant13,28,59.7201018899,M,trial,2017_May_28_1702,
,,0.62,"[-6.75, 0]",/sounds/legit/left100.wav,,,,,,,,,5,0,175,34,,,,,,,,,,,,,,,left,0.318641901016,participant13,28,59.7201018899,M,trial,2017_May_28_1702,
,,0.36,"[-6.75, 0]",/sounds/legit/left100.wav,,,,,,,,,5,1,176,32,,,,,,,,,,,,,,,left,0.418937921524,participant13,28,59.7201018899,M,trial,2017_May_28_1702,
,,0.49,"[-4.5, 0]",/sounds/legit/left70.wav,,,,,,,,,5,2,177,28,,,,,,,,,,,,,,,left,0.571529865265,participant13,28,59.7201018899,M,trial,2017_May_28_1702,
,,0.36,"[4.5, 0]",/sounds/legit/right70.wav,,,,,,,,,5,3,178,12,,,,,,,,,,,,,,,right,0.452442884445,participant13,28,59.7201018899,M,trial,2017_May_28_1702,
,,0.49,"[0, 0]",/sounds/legit/equal.wav,,,,,,,,,5,4,179,3,,,,,,,,,,,,,,,left,0.936723947525,participant13,28,59.7201018899,M,trial,2017_May_28_1702,
,,0.23,"[6.75, 0]",/sounds/legit/right100.wav,,,,,,,,,5,5,180,16,,,,,,,,,,,,,,,right,0.619436979294,participant13,28,59.7201018899,M,trial,2017_May_28_1702,
,,0.49,"[-4.5, 0]",/sounds/legit/left70.wav,,,,,,,,,5,6,181,28,,,,,,,,,,,,,,,left,0.168168067932,participant13,28,59.7201018899,M,trial,2017_May_28_1702,
,,0.23,"[-6.75, 0]",/sounds/legit/left100.wav,,,,,,,,,5,7,182,31,,,,,,,,,,,,,,,left,0.134917974472,participant13,28,59.7201018899,M,trial,2017_May_28_1702,
,,0.49,"[4.5, 0]",/sounds/legit/right70.wav,,,,,,,,,5,8,183,13,,,,,,,,,,,,,,,right,0.10160112381,participant13,28,59.7201018899,M,trial,2017_May_28_1702,
,,0.62,"[0, 0]",/sounds/legit/equal.wav,,,,,,,,,5,9,184,4,,,,,,,,,,,,,,,right,0.268491983414,participant13,28,59.7201018899,M,trial,2017_May_28_1702,
,,0.1,"[6.75, 0]",/sounds/legit/right100.wav,,,,,,,,,5,10,185,15,,,,,,,,,,,,,,,right,0.168287992477,participant13,28,59.7201018899,M,trial,2017_May_28_1702,
,,0.49,"[0, 0]",/sounds/legit/equal.wav,,,,,,,,,5,11,186,3,,,,,,,,,,,,,,,right,0.468106031418,participant13,28,59.7201018899,M,trial,2017_May_28_1702,
,,0.62,"[2.25, 0]",/sounds/legit/right35.wav,,,,,,,,,5,12,187,9,,,,,,,,,,,,,,,left,1.67168712616,participant13,28,59.7201018899,M,trial,2017_May_28_1702,
,,0.1,"[6.75, 0]",/sounds/legit/right100.wav,,,,,,,,,5,13,188,15,,,,,,,,,,,,,,,right,0.100450992584,participant13,28,59.7201018899,M,trial,2017_May_28_1702,
,,0.23,"[-6.75, 0]",/sounds/legit/left100.wav,,,,,,,,,5,14,189,31,,,,,,,,,,,,,,,left,0.118203163147,participant13,28,59.7201018899,M,trial,2017_May_28_1702,
,,0.1,"[-6.75, 0]",/sounds/legit/left100.wav,,,,,,,,,5,15,190,30,,,,,,,,,,,,,,,left,0.168419122696,participant13,28,59.7201018899,M,trial,2017_May_28_1702,
,,0.1,"[6.75, 0]",/sounds/legit/right100.wav,,,,,,,,,5,16,191,15,,,,,,,,,,,,,,,right,0.151629924774,participant13,28,59.7201018899,M,trial,2017_May_28_1702,
,,0.1,"[-4.5, 0]",/sounds/legit/left70.wav,,,,,,,,,5,17,192,25,,,,,,,,,,,,,,,left,0.133993148804,participant13,28,59.7201018899,M,trial,2017_May_28_1702,
,,0.62,"[0, 0]",/sounds/legit/equal.wav,,,,,,,,,5,18,193,4,,,,,,,,,,,,,,,left,0.268649101257,participant13,28,59.7201018899,M,trial,2017_May_28_1702,
,,0.36,"[-4.5, 0]",/sounds/legit/left70.wav,,,,,,,,,5,19,194,27,,,,,,,,,,,,,,,left,0.318731069565,participant13,28,59.7201018899,M,trial,2017_May_28_1702,
,,0.62,"[0, 0]",/sounds/legit/equal.wav,,,,,,,,,5,20,195,4,,,,,,,,,,,,,,,right,0.218529939651,participant13,28,59.7201018899,M,trial,2017_May_28_1702,
,,0.1,"[-2.25, 0]",/sounds/legit/left35.wav,,,,,,,,,5,21,196,20,,,,,,,,,,,,,,,left,0.0682210922241,participant13,28,59.7201018899,M,trial,2017_May_28_1702,
,,0.23,"[-6.75, 0]",/sounds/legit/left100.wav,,,,,,,,,5,22,197,31,,,,,,,,,,,,,,,left,0.0516090393066,participant13,28,59.7201018899,M,trial,2017_May_28_1702,
,,0.49,"[-6.75, 0]",/sounds/legit/left100.wav,,,,,,,,,5,23,198,33,,,,,,,,,,,,,,,left,0.051276922226,participant13,28,59.7201018899,M,trial,2017_May_28_1702,
,,0.36,"[-2.25, 0]",/sounds/legit/left35.wav,,,,,,,,,5,24,199,22,,,,,,,,,,,,,,,left,0.101607084274,participant13,28,59.7201018899,M,trial,2017_May_28_1702,
,,0.49,"[2.25, 0]",/sounds/legit/right35.wav,,,,,,,,,5,25,200,8,,,,,,,,,,,,,,,right,0.0846281051636,participant13,28,59.7201018899,M,trial,2017_May_28_1702,
,,0.49,"[-4.5, 0]",/sounds/legit/left70.wav,,,,,,,,,5,26,201,28,,,,,,,,,,,,,,,left,0.0344979763031,participant13,28,59.7201018899,M,trial,2017_May_28_1702,
,,0.49,"[-6.75, 0]",/sounds/legit/left100.wav,,,,,,,,,5,27,202,33,,,,,,,,,,,,,,,left,0.000397920608521,participant13,28,59.7201018899,M,trial,2017_May_28_1702,
,,0.62,"[6.75, 0]",/sounds/legit/right100.wav,,,,,,,,,5,28,203,19,,,,,,,,,,,,,,,right,0.953276872635,participant13,28,59.7201018899,M,trial,2017_May_28_1702,
,,0.49,"[2.25, 0]",/sounds/legit/right35.wav,,,,,,,,,5,29,204,8,,,,,,,,,,,,,,,right,0.00142002105713,participant13,28,59.7201018899,M,trial,2017_May_28_1702,
,,0.23,"[2.25, 0]",/sounds/legit/right35.wav,,,,,,,,,5,30,205,6,,,,,,,,,,,,,,,right,0.185162067413,participant13,28,59.7201018899,M,trial,2017_May_28_1702,
,,0.36,"[4.5, 0]",/sounds/legit/right70.wav,,,,,,,,,5,31,206,12,,,,,,,,,,,,,,,right,0.00146389007568,participant13,28,59.7201018899,M,trial,2017_May_28_1702,
,,0.36,"[4.5, 0]",/sounds/legit/right70.wav,,,,,,,,,5,32,207,12,,,,,,,,,,,,,,,right,0.101435899734,participant13,28,59.7201018899,M,trial,2017_May_28_1702,
,,0.1,"[-6.75, 0]",/sounds/legit/left100.wav,,,,,,,,,5,33,208,30,,,,,,,,,,,,,,,left,0.10146188736,participant13,28,59.7201018899,M,trial,2017_May_28_1702,
,,0.36,"[-2.25, 0]",/sounds/legit/left35.wav,,,,,,,,,5,34,209,22,,,,,,,,,,,,,,,left,0.936807155609,participant13,28,59.7201018899,M,trial,2017_May_28_1702,
,,0.62,"[6.75, 0]",/sounds/legit/right100.wav,,,,,,,,,6,0,210,19,,,,,,,,,,,,,,,right,0.168310880661,participant13,28,59.7201018899,M,trial,2017_May_28_1702,
,,0.1,"[6.75, 0]",/sounds/legit/right100.wav,,,,,,,,,6,1,211,15,,,,,,,,,,,,,,,right,0.352272033691,participant13,28,59.7201018899,M,trial,2017_May_28_1702,
,,0.49,"[2.25, 0]",/sounds/legit/right35.wav,,,,,,,,,6,2,212,8,,,,,,,,,,,,,,,right,0.185045957565,participant13,28,59.7201018899,M,trial,2017_May_28_1702,
,,0.62,"[4.5, 0]",/sounds/legit/right70.wav,,,,,,,,,6,3,213,14,,,,,,,,,,,,,,,right,0.151703119278,participant13,28,59.7201018899,M,trial,2017_May_28_1702,
,,0.36,"[4.5, 0]",/sounds/legit/right70.wav,,,,,,,,,6,4,214,12,,,,,,,,,,,,,,,right,1.02013921738,participant13,28,59.7201018899,M,trial,2017_May_28_1702,
,,0.1,"[-4.5, 0]",/sounds/legit/left70.wav,,,,,,,,,6,5,215,25,,,,,,,,,,,,,,,left,0.034707069397,participant13,28,59.7201018899,M,trial,2017_May_28_1702,
,,0.1,"[-2.25, 0]",/sounds/legit/left35.wav,,,,,,,,,6,6,216,20,,,,,,,,,,,,,,,left,0.218576908112,participant13,28,59.7201018899,M,trial,2017_May_28_1702,
,,0.62,"[0, 0]",/sounds/legit/equal.wav,,,,,,,,,6,7,217,4,,,,,,,,,,,,,,,left,0.636338949203,participant13,28,59.7201018899,M,trial,2017_May_28_1702,
,,0.62,"[4.5, 0]",/sounds/legit/right70.wav,,,,,,,,,6,8,218,14,,,,,,,,,,,,,,,right,0.168222904205,participant13,28,59.7201018899,M,trial,2017_May_28_1702,
,,0.49,"[-2.25, 0]",/sounds/legit/left35.wav,,,,,,,,,6,9,219,23,,,,,,,,,,,,,,,left,0.118210077286,participant13,28,59.7201018899,M,trial,2017_May_28_1702,
,,0.62,"[2.25, 0]",/sounds/legit/right35.wav,,,,,,,,,6,10,220,9,,,,,,,,,,,,,,,right,0.151490926743,participant13,28,59.7201018899,M,trial,2017_May_28_1702,
,,0.36,"[6.75, 0]",/sounds/legit/right100.wav,,,,,,,,,6,11,221,17,,,,,,,,,,,,,,,right,0.418765068054,participant13,28,59.7201018899,M,trial,2017_May_28_1702,
,,0.62,"[2.25, 0]",/sounds/legit/right35.wav,,,,,,,,,6,12,222,9,,,,,,,,,,,,,,,left,0.452219009399,participant13,28,59.7201018899,M,trial,2017_May_28_1702,
